ID,Label,gyrox_meanVal,gyrox_sdVal,gyrox_rmsVal,gyrox_maxVal,gyrox_minVal,gyrox_peakToPeak,gyrox_cvVal,gyrox_mavVal,gyrox_varVal,gyrox_psdMean,gyrox_domFreq,gyrox_domAmp,gyrox_meanFreq,gyrox_medianFreq,gyrox_specEntropy,gyrox_psdAsymmetry,gyrox_harmonicRatio,gyroy_meanVal,gyroy_sdVal,gyroy_rmsVal,gyroy_maxVal,gyroy_minVal,gyroy_peakToPeak,gyroy_cvVal,gyroy_mavVal,gyroy_varVal,gyroy_psdMean,gyroy_domFreq,gyroy_domAmp,gyroy_meanFreq,gyroy_medianFreq,gyroy_specEntropy,gyroy_psdAsymmetry,gyroy_harmonicRatio,gyroz_meanVal,gyroz_sdVal,gyroz_rmsVal,gyroz_maxVal,gyroz_minVal,gyroz_peakToPeak,gyroz_cvVal,gyroz_mavVal,gyroz_varVal,gyroz_psdMean,gyroz_domFreq,gyroz_domAmp,gyroz_meanFreq,gyroz_medianFreq,gyroz_specEntropy,gyroz_psdAsymmetry,gyroz_harmonicRatio,accx_meanVal,accx_sdVal,accx_rmsVal,accx_maxVal,accx_minVal,accx_peakToPeak,accx_cvVal,accx_mavVal,accx_varVal,accx_psdMean,accx_domFreq,accx_domAmp,accx_meanFreq,accx_medianFreq,accx_specEntropy,accx_psdAsymmetry,accx_harmonicRatio,accy_meanVal,accy_sdVal,accy_rmsVal,accy_maxVal,accy_minVal,accy_peakToPeak,accy_cvVal,accy_mavVal,accy_varVal,accy_psdMean,accy_domFreq,accy_domAmp,accy_meanFreq,accy_medianFreq,accy_specEntropy,accy_psdAsymmetry,accy_harmonicRatio,accz_meanVal,accz_sdVal,accz_rmsVal,accz_maxVal,accz_minVal,accz_peakToPeak,accz_cvVal,accz_mavVal,accz_varVal,accz_psdMean,accz_domFreq,accz_domAmp,accz_meanFreq,accz_medianFreq,accz_specEntropy,accz_psdAsymmetry,accz_harmonicRatio,,GMinter_meanVal,GMinter_sdVal,GMinter_rmsVal,GMinter_maxVal,GMinter_minVal,GMinter_peakToPeak,GMinter_cvVal,GMinter_mavVal,GMinter_varVal,GMinter_logDetector,GMinter_waveformLength,GMinter_psdMean,GMinter_domFreq,GMinter_domAmp,GMinter_meanFreq,GMinter_medianFreq,GMinter_meanPowerFreq,GMinter_specEntropy,GMinter_psdAsymmetry,GMinter_harmonicRatio,GMinter_dwtEnergy,GMinter_cwtMean,GMinter_emdEnergy,RFinter_meanVal,RFinter_sdVal,RFinter_rmsVal,RFinter_maxVal,RFinter_minVal,RFinter_peakToPeak,RFinter_cvVal,RFinter_mavVal,RFinter_varVal,RFinter_logDetector,RFinter_waveformLength,RFinter_psdMean,RFinter_domFreq,RFinter_domAmp,RFinter_meanFreq,RFinter_medianFreq,RFinter_meanPowerFreq,RFinter_specEntropy,RFinter_psdAsymmetry,RFinter_harmonicRatio,RFinter_dwtEnergy,RFinter_cwtMean,RFinter_emdEnergy,BFinter_meanVal,BFinter_sdVal,BFinter_rmsVal,BFinter_maxVal,BFinter_minVal,BFinter_peakToPeak,BFinter_cvVal,BFinter_mavVal,BFinter_varVal,BFinter_logDetector,BFinter_waveformLength,BFinter_psdMean,BFinter_domFreq,BFinter_domAmp,BFinter_meanFreq,BFinter_medianFreq,BFinter_meanPowerFreq,BFinter_specEntropy,BFinter_psdAsymmetry,BFinter_harmonicRatio,BFinter_dwtEnergy,BFinter_cwtMean,BFinter_emdEnergy,MGinter_meanVal,MGinter_sdVal,MGinter_rmsVal,MGinter_maxVal,MGinter_minVal,MGinter_peakToPeak,MGinter_cvVal,MGinter_mavVal,MGinter_varVal,MGinter_logDetector,MGinter_waveformLength,MGinter_psdMean,MGinter_domFreq,MGinter_domAmp,MGinter_meanFreq,MGinter_medianFreq,MGinter_meanPowerFreq,MGinter_specEntropy,MGinter_psdAsymmetry,MGinter_harmonicRatio,MGinter_dwtEnergy,MGinter_cwtMean,MGinter_emdEnergy,TAinter_meanVal,TAinter_sdVal,TAinter_rmsVal,TAinter_maxVal,TAinter_minVal,TAinter_peakToPeak,TAinter_cvVal,TAinter_mavVal,TAinter_varVal,TAinter_logDetector,TAinter_waveformLength,TAinter_psdMean,TAinter_domFreq,TAinter_domAmp,TAinter_meanFreq,TAinter_medianFreq,TAinter_meanPowerFreq,TAinter_specEntropy,TAinter_psdAsymmetry,TAinter_harmonicRatio,TAinter_dwtEnergy,TAinter_cwtMean,TAinter_emdEnergy,PLinter_meanVal,PLinter_sdVal,PLinter_rmsVal,PLinter_maxVal,PLinter_minVal,PLinter_peakToPeak,PLinter_cvVal,PLinter_mavVal,PLinter_varVal,PLinter_logDetector,PLinter_waveformLength,PLinter_psdMean,PLinter_domFreq,PLinter_domAmp,PLinter_meanFreq,PLinter_medianFreq,PLinter_meanPowerFreq,PLinter_specEntropy,PLinter_psdAsymmetry,PLinter_harmonicRatio,PLinter_dwtEnergy,PLinter_cwtMean,PLinter_emdEnergy
1,0,6.132551611,53.50607629,53.84384122,310.4163157,-190.3333164,500.7496321,1.291875396,41.41736613,2862.9002,57.32886601,0.9765625,1280.477762,6.929662174,5.46875,6.107742052,0.9193212477,25.34830747,0.7515651354,24.86876247,24.87425873,170.3245719,-59.99387813,230.31845,1.497281761,16.60927363,618.4553467,12.28440865,0.9765625,310.1635038,8.194835751,3.90625,6.263119254,0.9104652572,22.37134617,1.220385995,207.8615688,207.8161686,442.5436996,-300.6352918,743.1789914,1.215640401,170.9893555,43206.43176,864.9724969,0.9765625,66830.87613,1.67288357,1.7578125,2.839459539,0.9978504674,5.997352289,1.268763538,0.627819936,1.415532776,3.308215511,-0.079058594,3.387274105,0.4947138016,1.269056845,0.3941578721,0.03999536712,0,5.569404629,0.8652072162,0,2.292318102,0.9936943149,2.48801961,0.06771487844,0.8410080684,0.8435321932,3.552015233,-4.424443219,7.976458452,1.874675002,0.448615396,0.7072945712,0.01412563105,0.9765625,0.3358027896,10.66180101,7.6171875,6.588238138,0.8331176809,24.00214217,0.1351728721,0.3364773465,0.3625401442,2.200418863,-1.944347723,4.144766586,1.4226336,0.2365172217,0.1132170047,0.002484231112,0,0.06410583127,11.8392123,12.3046875,6.625935735,0.8772827357,14.29926209,,0.00000487882343,0.02172915109,0.02172867181,0.2461444813,-0.2135423571,0.4596868383,1.580527323,0.01374803889,0.0004721560072,0.007588653511,204.6511053,0.0000009959534627,31.49414063,0.00003495511877,78.20290243,45.65429688,0.0000009959534627,9.890565818,0.8898266931,117.5368706,10.70183445,0.002190719098,12.43903771,-0.000003763037746,0.02923805189,0.0292374065,0.3179129632,-0.2995936016,0.6175065648,1.643274721,0.01779255259,0.0008548636785,0.008917967965,234.5387592,0.000001784853666,44.18945313,0.00004056356103,83.3930185,59.69238281,0.000001784853666,10.13564336,0.9266604898,113.9148962,19.36220139,0.002822401869,22.16859097,0.00002339788846,0.06786092879,0.06785943431,0.7952596743,-0.6325995615,1.427859236,1.822260554,0.03723997024,0.004605105657,0.01488924977,476.7770427,0.000009454293506,35.76660156,0.0002216219622,84.15551824,60.91308594,0.000009454293506,10.21044704,0.9226439135,122.4695988,104.3112292,0.005880741649,124.3849003,0.00001422511398,0.09531585781,0.09531375409,0.8502878174,-0.7216509369,1.571938754,1.729457389,0.05511315771,0.00908511275,0.02346754056,847.3875483,0.00001850409666,40.40527344,0.0002154887399,107.985177,93.26171875,0.00001850409666,10.65194369,0.9008969539,173.0075097,208.2543713,0.008345776039,222.6398559,0.000001157413803,0.005350345801,0.005350227779,0.08111085574,-0.09108069103,0.1721915468,1.701289307,0.003144877112,0.00002862620019,0.001752229651,85.08423242,0.00000005730354722,98.38867188,0.000004471320737,196.3236936,178.4667969,0.00000005730354722,11.35572626,0.3812694209,117.5040076,0.6484857019,0.000565386048,0.7507210933,0.00000063396632,0.005493904186,0.005493782905,0.08898975281,-0.09609004474,0.1850797976,1.671666121,0.003286484134,0.0000301829832,0.001825517707,89.76579885,0.00000006161477346,98.38867188,0.000003630418252,198.438574,180.5419922,0.00000006161477346,11.43276466,0.3601633464,139.2532059,0.6835988875,0.0005893634169,0.8004382101
2,0,-0.5146837903,51.91603599,51.90766605,94.9284847,-183.1508202,278.0793049,1.188676756,43.6754868,2695.274793,55.59550618,0.87890625,6331.568959,0.9646670861,0.87890625,3.736912378,0.9999238322,5.27761133,3.573844157,32.8491982,33.03616536,74.33452006,-150.7903876,225.1249076,1.368579211,24.00240917,1079.069822,23.39323867,0.78125,2306.413457,1.051538568,0.87890625,3.877659585,0.9998914147,6.745577354,1.613032719,160.5911361,160.5654547,376.032869,-192.4249921,568.4578611,1.223772794,131.2262675,25789.51299,514.9300111,0.87890625,50206.94997,1.263830473,0.9765625,3.464771302,0.999972611,5.802930668,1.122464017,0.355792277,1.177480513,1.87900738,0.2580378002,1.62096958,0.3169743275,1.122464017,0.1265881443,0.02772648765,0.09765625,6.366926757,0.2461285648,0.09765625,2.102878473,0.9999792104,2.199842496,-0.02569608903,0.2066826069,0.2082306839,0.6771833331,-0.2827052774,0.9598886105,1.286485491,0.1606567726,0.04271770001,0.0008727386366,0.87890625,0.0591153675,1.625156039,1.66015625,4.311900127,0.9999584239,9.276062696,0.267639044,0.1121627196,0.290182427,0.7883277758,-0.03060359448,0.8189313703,0.4189356732,0.2677325584,0.01258047567,0.001707254186,0.09765625,0.3670085998,0.3241543891,0.09765625,2.549235007,0.9999682694,2.349949579,,0.000007445692408,0.01452739838,0.01452707479,0.1123977089,-0.1138835227,0.2262812316,1.410696628,0.01029803154,0.0002110453036,0.006160040964,173.9443829,0.0000003996345962,99.609375,0.00001250306579,110.1546473,74.82910156,0.0000003996345962,10.64121564,0.8021409813,113.0090613,4.74309683,0.001681770164,5.103146375,0.00003166829953,0.0274987622,0.0274981643,0.1959119575,-0.2938059493,0.4897179068,1.50492107,0.01827256109,0.0007561819224,0.009944582285,198.9056174,0.000001591243724,35.40039063,0.00006860846581,62.97984394,43.33496094,0.000001591243724,9.450114562,0.9662369788,90.2881305,17.03960911,0.002762546375,18.61391685,-0.000003376842749,0.04555065429,0.04554963382,0.4965675249,-0.7927082946,1.28927582,2.060244447,0.02210934452,0.002074862106,0.008841310529,356.7138181,0.000003958986788,65.4296875,0.00006517603537,102.7794072,87.52441406,0.000003958986788,10.38281137,0.9367087048,151.6270081,46.33954238,0.003600188584,50.61447067,0.00003486499497,0.1655839637,0.1655802574,1.284351756,-1.311833924,2.59618568,2.114281893,0.07831688115,0.02741804905,0.02302576417,1103.110504,0.00005541871808,45.28808594,0.0007847492911,92.73480481,78.85742188,0.00005541871808,10.25193859,0.9358539249,138.8462549,612.0109737,0.01267251344,683.146839,-0.0001245000658,0.1057442409,0.1057419449,1.051792908,-1.111205604,2.162998513,1.751927996,0.06035878255,0.01118184449,0.02673268193,887.9216933,0.00002138915178,46.50878906,0.0003565181002,94.63551746,77.63671875,0.00002138915178,10.27941503,0.9389180196,141.6540802,251.7109627,0.009599392205,276.2482608,0.000001527460348,0.143965674,0.1439624483,1.45307689,-1.333721289,2.786798179,2.010156382,0.0716191413,0.02072611529,0.02728358323,1089.337674,0.00004679792556,78.49121094,0.000547445473,103.8357033,92.16308594,0.00004679792556,10.43804169,0.9589297095,157.272722,462.6035467,0.01135868348,470.5780624
3,0,9.192385034,50.58273202,51.40027292,109.8304314,-114.0590568,223.8894882,1.121870496,45.08785303,2558.612778,51.27301966,0.78125,3277.964616,1.284976086,0.9765625,3.219225523,0.9992495686,6.815617175,9.031891844,18.79945996,20.85280355,61.67344368,-24.88168587,86.55512955,1.144918466,16.41991157,353.4196949,8.139700645,0.78125,579.3179976,0.9910270203,0.78125,3.182461113,0.9994117579,6.815280859,2.465753073,165.3386079,165.3206551,380.3784801,-176.3016612,556.6801412,1.214304128,136.1591417,27336.85526,539.8345166,0.78125,38941.99245,1.305740888,0.9765625,2.437251598,0.9999607605,5.013769852,1.170112317,0.3881101636,1.232771723,1.987899214,0.3028621829,1.685037031,0.3316862476,1.170112317,0.1506294991,0.03026133566,0,5.067791308,0.2475752174,0,1.491740872,0.9999663826,2.218852243,0.04295472512,0.2900221831,0.2931228453,1.012338588,-0.276914042,1.28925263,1.412263212,0.2053598654,0.08411286671,0.001701154839,1.7578125,0.1722338455,1.719466799,1.7578125,3.035076531,0.9993386734,6.389651426,0.2732093469,0.09036448207,0.2877594438,0.439604998,-0.1065323678,0.5461373659,0.3277775713,0.2756884241,0.00816573962,0.001659969667,0,0.2819249075,0.2216386494,0,1.497068836,0.9995303069,2.217512359,,0.000004892629929,0.01421037616,0.01421006468,0.1515045014,-0.1121222273,0.2636267287,1.395417164,0.01018360425,0.0002019347906,0.006162751487,186.884449,0.0000004083290426,98.87695313,0.00004704690108,122.3067579,98.75488281,0.0000004083290426,10.58598281,0.7868607248,74.83331222,4.611188023,0.001623428042,5.045218744,0.000003969862207,0.01174527917,0.0117450217,0.07516668201,-0.07576882614,0.1509355082,1.38568155,0.008476174897,0.0001379515827,0.005210263308,133.8016618,0.0000002836475266,98.87695313,0.00004528388133,95.89488835,73.48632813,0.0000002836475266,9.961642055,0.8800849854,54.53693202,3.141583491,0.00134693431,3.304850163,0.0000001279113046,0.02370427531,0.02370375433,0.2840512043,-0.5025927969,0.7866440012,1.662273997,0.01426014926,0.0005618926677,0.007553577718,213.4324359,0.0000009916376494,98.87695313,0.0000491779842,91.86368148,72.75390625,0.0000009916376494,10.20293265,0.9365736379,111.3946009,12.79191757,0.002236600776,14.75478509,0.00000860799437,0.07950055486,0.07949880804,0.5124811213,-0.9564906823,1.468971804,1.721247232,0.04618776047,0.006320338223,0.02037491046,765.6212718,0.00001327249095,105.3466797,0.0001216407654,116.6070792,103.1494141,0.00001327249095,10.70739474,0.8939313558,172.5190922,144.5001323,0.007189826667,151.6362455,0.00001660523033,0.09273916276,0.092737126,1.115496606,-1.076999186,2.192495792,1.865562063,0.04971111099,0.00860055231,0.02206124536,601.4211622,0.00001653082215,65.18554688,0.0003176111561,74.93513558,62.01171875,0.00001653082215,9.748015661,0.9742953781,117.7809149,196.2245908,0.007496047661,216.5290584,-0.00002217155889,0.1311518884,0.1311490078,1.442805206,-1.572835004,3.01564021,2.028833575,0.0646439856,0.01720081783,0.02669434502,1011.838065,0.00003412806508,103.8818359,0.0003210484177,112.1288093,100.9521484,0.00003412806508,10.58314226,0.9351472136,168.1189985,391.3756788,0.01027582322,412.8117834
4,0,-7.138361316,89.33823021,89.5998054,157.0479942,-241.0541303,398.1021245,1.241720466,71.94713516,7981.319378,169.4423635,0.9765625,11682.94722,1.273304499,1.171875,3.336591354,0.9996093625,8.842847106,-1.140145582,53.95700309,53.95501967,80.75957965,-185.3768123,266.1363919,1.213885578,44.4498263,2911.358183,62.99611887,0.9765625,3601.934473,1.337645069,1.171875,3.473231917,0.9997791251,10.31219888,2.240592472,153.5638256,153.5402415,353.6107145,-211.6126656,565.2233801,1.198983891,128.078306,23581.84855,470.0282702,0.9765625,28715.33101,1.48822753,1.3671875,3.214665268,0.9998357744,9.121881043,1.136850256,0.4140811425,1.209877073,1.91719241,0.1207551199,1.79643729,0.3642354305,1.136850256,0.1714631926,0.02910923011,0,4.037658943,0.3238291357,0,1.802482363,0.9999760667,2.26386356,0.009559978356,0.3465743709,0.3466161077,0.9962028284,-0.5485725382,1.544775367,1.325281782,0.2615099489,0.1201137946,0.002374753556,0.9765625,0.1710029382,1.489627036,1.171875,3.384203484,0.9999277301,8.416329022,0.5058347676,0.2171318981,0.5504457796,1.247436567,-0.01356396841,1.261000536,0.4292226881,0.5058723689,0.04714626115,0.006178746565,0,0.8110984559,0.3641104174,0,2.055326698,0.9999428849,2.366869882,,0.000004390188113,0.01526393509,0.01526361061,0.1231627059,-0.1631114873,0.2862741932,1.520890467,0.01003618303,0.0002329877145,0.005560154319,176.5999462,0.0000004678282778,89.84375,0.00001640867168,103.9221465,78.125,0.0000004678282778,10.59495499,0.8695194144,128.3006609,5.498155028,0.001632251991,5.945164755,-0.00001100387027,0.02897612355,0.02897550846,0.3549593989,-0.2863601658,0.6413195648,1.782769929,0.01625342848,0.0008396157358,0.006877651362,189.1926114,0.000001655837816,37.23144531,0.00004617295782,63.05863018,49.43847656,0.000001655837816,9.638109475,0.9757814728,107.8679561,20.0850624,0.002573798752,20.3808402,0.000001949830286,0.08570046439,0.08569863904,0.5971956775,-1.082589357,1.679785035,1.905843125,0.04496721857,0.007344569597,0.01671358997,553.9287964,0.00001609629586,41.25976563,0.0002400553405,82.00365963,70.19042969,0.00001609629586,10.12255941,0.9698375175,138.119999,172.4209555,0.007098456527,206.2326487,0.00002116430764,0.06283164189,0.06283030717,0.5185373576,-0.5942716609,1.112809019,1.909117166,0.03291135977,0.003947815222,0.01328615617,506.3377201,0.000008130981467,67.87109375,0.00008131873014,97.52672441,80.32226563,0.000008130981467,10.48761871,0.930585363,167.2128072,92.68191795,0.005333071658,97.04804921,0.00003835533073,0.09300957429,0.09300760114,0.8114800723,-0.9541885271,1.765668599,1.955547823,0.04756190219,0.008650780909,0.01720243706,699.7596428,0.00001709881781,73.85253906,0.0001854449318,96.41969042,83.37402344,0.00001709881781,10.38267741,0.9595158611,150.0923676,204.6102838,0.007538572987,216.0793729,-0.00003504298508,0.07466358537,0.0746620033,0.8936834157,-0.688796929,1.582480345,1.956729456,0.03815733705,0.00557465098,0.01392928285,555.0694384,0.00001078553329,52.734375,0.0001559111459,90.50706526,81.0546875,0.00001078553329,10.2219913,0.9685523347,148.9179709,130.8691371,0.005928592802,133.6982767
5,0,0.1697373818,32.77834166,32.77087809,49.71976654,-121.983038,171.7028045,1.232802364,26.58848054,1074.419682,23.26525437,0.9765625,843.0141351,1.500614096,1.171875,4.131678771,0.9983166139,14.33967144,-4.525133924,33.28857564,33.58678028,72.06737994,-156.2777027,228.3450826,1.370987079,24.28073624,1108.129268,24.35750271,0.9765625,1927.197066,1.29798955,0.9765625,3.355312679,0.9997515679,8.531690776,-2.73076093,169.4541065,169.4352566,381.7617109,-240.4499692,622.2116802,1.222706239,138.5893857,28714.6942,587.9271335,0.9765625,50078.22205,1.418373757,1.171875,2.805744581,0.9999486612,8.067266473,1.267161349,0.4506518708,1.344874371,2.170662592,0.2908082911,1.879854301,0.355638902,1.267161349,0.2030871087,0.03631448413,0,5.463808253,0.296338421,0,1.670842912,0.9999653565,2.251613209,-0.02773507299,0.4358130545,0.4365898242,1.16654789,-0.6692847076,1.835832597,1.273921495,0.3421035409,0.1899330184,0.003924661405,0.9765625,0.3646746702,1.425416345,1.171875,3.035268278,0.9999018477,7.592136956,0.1004869551,0.09761999887,0.1400810391,0.7615797362,-0.1618200032,0.9233997393,0.8860812007,0.1101704887,0.009529664179,0.0004230433637,0,0.03561826894,0.8204256947,0.1953125,3.453986563,0.9998019693,3.882818601,,0.00000375416348,0.04861204009,0.04861096072,1.006176268,-1.321763905,2.327940174,2.257194325,0.02153648871,0.002363130442,0.01047426228,295.3506415,0.000004864802774,39.91699219,0.00008480033632,101.9490975,71.41113281,0.000004864802774,10.50187148,0.8520484322,170.4803372,53.22574599,0.003502163502,65.09034176,0.000010305892,0.02425167909,0.02425114273,0.2457786882,-0.158286691,0.4040653792,1.649943927,0.01469848683,0.0005881439385,0.006990410811,205.612184,0.000001250599866,59.69238281,0.00002268394657,85.32099808,70.55664063,0.000001250599866,10.10116457,0.9526940575,129.1563532,13.25505536,0.00226403889,14.4359482,-0.00001462853306,0.0315916794,0.03159098124,0.3161148695,-0.4401483325,0.756263202,1.742573137,0.01812932767,0.000998034207,0.008729229141,274.2885064,0.000002106668564,62.01171875,0.00003012882075,99.75448265,81.78710938,0.000002106668564,10.49022181,0.9303239993,155.8481167,22.6488736,0.002951070328,26.32562233,0.00001853274839,0.05687599429,0.05687473429,0.4628023734,-0.51497453,0.9777769034,1.658813374,0.03428715681,0.003234878727,0.01639746589,508.6921493,0.000006785034025,40.52734375,0.00009055823833,101.4164259,82.15332031,0.000006785034025,10.56147097,0.9168211172,169.5833309,72.84376513,0.005360062836,75.76687437,0.00001306145547,0.08076065037,0.08075885801,0.6313360661,-0.8267970893,1.458133155,1.680666421,0.04805275416,0.006522282649,0.02220020069,593.4364471,0.0000129367721,41.62597656,0.0002214827409,76.3450072,62.01171875,0.0000129367721,9.904336901,0.9703289219,120.9766263,149.8413613,0.007362934067,167.5220424,0.000008942093711,0.09928641451,0.09928421009,1.167898238,-1.153834411,2.321732649,1.846806684,0.05376113017,0.009857792106,0.02257080261,854.2530728,0.00002057475602,76.53808594,0.0002365899851,107.796036,95.58105469,0.00002057475602,10.53802902,0.9255293391,174.308798,222.0102586,0.008348457698,231.3579709
6,0,3.317101702,48.48970727,48.59287365,110.8543413,-121.9624616,232.8168029,1.248666504,38.83319295,2351.251711,44.43367662,0.87890625,3393.685225,1.399279559,1.07421875,4.376106919,0.9996020173,11.28455809,4.175215086,11.05486711,11.81487116,29.43019027,-33.04084303,62.4710333,1.15465407,9.574181043,122.2100867,2.521480975,0.87890625,200.1681025,1.03203218,0.87890625,4.356283056,0.9997216343,10.19026034,3.171305535,147.5688307,147.571918,353.2507298,-192.7830256,546.0337554,1.240185553,118.989316,21776.55978,429.0407626,0.87890625,30825.35148,1.313113408,1.26953125,4.057070645,0.9997787371,9.941217285,1.125961835,0.3826938126,1.189194306,2.017514673,0.2027136488,1.814801025,0.3398816911,1.125961835,0.1464545542,0.02812383993,0.09765625,6.380319816,0.26908259,0.09765625,2.23052754,0.9999341849,2.229897412,0.03472304092,0.2381113795,0.2405803532,0.880977307,-0.3010038461,1.181981153,1.526383841,0.155997052,0.05669702905,0.001163914792,0.87890625,0.06797521279,1.583385223,1.3671875,4.8303241,0.9988963368,13.63703584,0.2890832034,0.0759332925,0.2988854994,0.4923071144,0.0357386068,0.4565685076,0.262669334,0.2890832034,0.005765864909,0.001777372748,0.09765625,0.4211933884,0.1815226203,0.09765625,1.996594903,0.9999287776,2.136972995,,0.000005631015875,0.01598564982,0.01598536308,0.1619406258,-0.1367697596,0.2987103854,1.557421965,0.01026417386,0.0002555410003,0.005372804659,242.3029572,0.0000005006883873,53.95507813,0.000006717136044,118.9882981,91.06445313,0.0000005006883873,10.82735798,0.803145213,183.0689644,7.109980554,0.001649225199,7.279466095,0.000003645589269,0.02396455653,0.02396412546,0.330778841,-0.2741435411,0.6049223821,2.054140781,0.01166646256,0.0005742999696,0.004417523796,231.0856189,0.000001139242575,70.55664063,0.00001716790396,93.96027395,75.1953125,0.000001139242575,10.29516076,0.9387546515,162.7683951,15.97890904,0.001766840819,17.11698693,0.000008933737782,0.03992691566,0.039926198,0.5395015079,-0.7340569178,1.273558426,2.3297026,0.01713820282,0.001594158594,0.006029134524,339.8739112,0.000003460180108,79.83398438,0.00004505582755,98.85144598,80.56640625,0.000003460180108,10.46340408,0.9310999467,180.7374788,44.4258184,0.00279351522,48.31487256,-0.00000829281092,0.07588802374,0.07588665825,0.6576812549,-0.9087880595,1.566469314,2.076822653,0.03654044491,0.005758992147,0.01109372577,780.0605198,0.00001209006641,61.76757813,0.0001279777049,111.4561677,93.99414063,0.00001209006641,10.66666436,0.9037540547,192.8484928,160.2088563,0.005743922329,165.5404973,-0.000002859375791,0.06867715707,0.06867592098,0.666615052,-0.8486606867,1.515275739,1.721649641,0.03989032113,0.004716551903,0.01722092547,656.3826315,0.000009058193281,56.03027344,0.0001805121325,84.05699687,68.48144531,0.000009058193281,10.07162972,0.963551777,140.8167444,131.0234223,0.005942133787,136.6534917,-0.000009621507692,0.05946808779,0.05946701818,1.099939727,-1.10064078,2.200580507,1.815479075,0.03275614056,0.003536453465,0.01531574739,630.7395216,0.000008071834378,78.125,0.0001097454579,110.343698,96.31347656,0.000008071834378,10.54974953,0.9163603903,186.0305329,98.58616886,0.00498113996,104.0514146
7,0,-4.174677613,57.58499567,57.72378407,91.7949641,-209.7831234,301.5780875,1.173400798,49.07529955,3316.031727,67.22362967,0.87890625,9394.577809,1.129059996,0.87890625,3.540213189,0.9993770186,4.412669425,-2.237548821,38.72911787,38.78539531,98.95597885,-91.64037688,190.5963557,1.2711338,30.46816777,1499.944571,30.29902829,0.87890625,3829.726659,1.087224823,0.87890625,3.503243694,0.9998235371,4.780734337,0.8939603375,166.6361665,166.6027716,377.6135219,-207.4922532,585.1057751,1.245273919,133.8148691,27767.61199,550.8534308,0.87890625,45909.67108,1.361991671,1.5625,3.532640117,0.999962727,5.55991773,1.197358912,0.4273433121,1.271303357,2.07743,0.224957656,1.852472344,0.3569049412,1.197358912,0.1826223064,0.0321300253,0.09765625,7.183057128,0.2877688112,0.09765625,2.223173038,0.9999694759,2.25356156,0.1830526042,0.3213057232,0.3697313589,1.15887,-0.2385173639,1.397387364,1.485742844,0.2162593106,0.1032373678,0.002711639568,0.87890625,0.1734806388,1.184585856,0.87890625,4.228247305,0.999865454,8.113679984,0.2558305117,0.1321587944,0.2879369638,0.7035469309,-0.2161877452,0.919734676,0.5127660624,0.2577370152,0.01746594694,0.00166267698,0.09765625,0.334789831,0.4410150249,0.09765625,2.840726371,0.9999573185,2.532022484,,-0.0000001051130383,0.01455121747,0.01455092407,0.1387133385,-0.1543541167,0.2930674551,1.553135799,0.009368927997,0.0002117379298,0.005179031792,199.7193117,0.0000004184230514,98.26660156,0.00001746742821,127.1813311,98.26660156,0.0000004184230514,10.86027512,0.7811105469,133.1328994,5.254713888,0.001505668586,5.767209283,0.00002807571475,0.04145729547,0.04145646907,0.667058191,-0.5306343216,1.197692513,2.253650821,0.01839561617,0.001718707348,0.006158050494,228.9976185,0.000003406273137,38.0859375,0.0001816640258,59.62517405,41.25976563,0.000003406273137,9.135751826,0.9808289202,89.52162899,42.63378664,0.002696906195,52.25227931,-0.000008962384682,0.0455248756,0.04552395856,0.5721971842,-0.8179203316,1.390117516,2.514078063,0.01810798013,0.002072514299,0.006985198349,325.6834728,0.000004040297731,98.38867188,0.00003662782735,102.9733636,91.06445313,0.000004040297731,10.53623235,0.9364295594,201.122045,51.40407432,0.002872426339,55.94127758,-0.00001886681509,0.1164370863,0.1164347401,1.184435186,-1.120907493,2.305342679,2.009589718,0.05794072553,0.01355759506,0.02027195426,1037.712285,0.00002857860809,69.09179688,0.0004069083375,105.3630672,84.9609375,0.00002857860809,10.49765066,0.8990252049,168.8658659,336.7005319,0.009052804794,366.4087827,-0.00002007766962,0.09287320855,0.0928713381,0.8948801733,-0.961095301,1.855975474,1.838379448,0.05051906376,0.008625432866,0.01987030334,930.5675039,0.00001684777175,53.83300781,0.0001583655409,117.4313417,102.2949219,0.00001684777175,10.7133992,0.907225657,173.8807692,214.0030169,0.007830084511,229.7901935,0.0000108828349,0.07987411157,0.0798725018,0.6845001812,-0.8338310384,1.51833122,1.770447794,0.04511520298,0.006379873699,0.01990658512,813.5875753,0.00001289089585,98.26660156,0.0001196524166,111.8516123,101.4404297,0.00001289089585,10.52869783,0.9251849585,166.3798513,158.5569497,0.006795918014,167.4283562
8,0,-2.012991064,37.55780842,37.60289782,77.70829137,-156.5444407,234.2527321,1.260551159,29.7947514,1410.588974,24.36019635,0.9765625,2057.37405,1.507639372,0.9765625,3.309781839,0.9996311146,6.999604857,-4.541749559,21.88170563,22.34303963,60.69690387,-90.74985384,151.4467577,1.264743295,17.30130194,478.8090411,7.669416256,0.9765625,994.3578024,1.086953221,0.9765625,2.552312186,0.9990642615,4.861513636,2.487486357,175.8398486,175.8161062,388.5513378,-209.75704,598.3083778,1.231185044,142.821625,30919.65236,621.7094726,0.9765625,48828.97538,1.4611085,1.5625,2.653734464,0.9998705595,5.518837654,1.287861692,0.4406198469,1.361118037,2.207256805,0.3602745587,1.846982246,0.3421328932,1.287861692,0.1941458495,0.03708547391,0,5.739833975,0.2773118741,0,1.602319107,0.9999646595,2.232827192,0.1085640758,0.4510727604,0.4638503366,1.35403578,-0.4808671445,1.834902925,1.432564678,0.3148707819,0.2034666351,0.004288983172,0.9765625,0.3864253717,1.397068548,0.9765625,3.126227272,0.9999409091,5.802795055,0.1351371049,0.1474334469,0.1999710954,0.6375185172,-0.4263100717,1.063828589,0.9181296224,0.1605802093,0.02173662126,0.0007416030944,0,0.06359861247,0.8320976798,0.390625,3.203004683,0.9998426799,4.367733545,,0.0000002271001535,0.01172674986,0.01172648779,0.1056977839,-0.1216758589,0.2273736428,1.56860265,0.007475921233,0.0001375166622,0.004196739609,142.5862103,0.0000002630582972,95.703125,0.00002166852537,124.3147784,92.89550781,0.0000002630582972,10.73975752,0.7447411057,98.77701603,3.137151409,0.001232705721,3.423933863,0.000001709033899,0.01857018568,0.01856977076,0.1477941058,-0.1732674243,0.3210615302,1.764708269,0.01052309099,0.0003448517963,0.005023809063,152.8378846,0.0000006904851183,95.703125,0.00002705674268,85.4397877,67.26074219,0.0000006904851183,10.11936868,0.9454377716,124.078298,7.781097213,0.001615408447,8.978751298,0.000006485595318,0.06751485525,0.06751334677,0.5929386451,-0.3973597845,0.9902984296,1.803105495,0.03744365233,0.00455825568,0.01262481821,539.1276096,0.000008961545991,51.26953125,0.0001179537045,95.72123494,79.22363281,0.000008961545991,10.38523896,0.9455172972,145.5732393,102.6310705,0.005906314277,113.2248857,-0.0000162129866,0.08287898111,0.08287713055,0.8463953933,-0.7059966035,1.552391997,1.970083839,0.04206875842,0.00686892551,0.0135007746,622.5889691,0.00001366371367,65.30761719,0.0001524973218,96.10845963,81.29882813,0.00001366371367,10.34065739,0.9558948379,177.8555611,154.6153355,0.006340112209,162.2204157,0.00007050105818,0.08645177169,0.08644986845,0.7309294699,-0.7754092673,1.506338737,1.566591124,0.05518464286,0.007473908829,0.02709804058,658.1277828,0.00001532029963,44.31152344,0.0002204129341,76.71522626,65.67382813,0.00001532029963,9.904465596,0.9809371886,122.8635837,172.269316,0.00811479395,181.3795395,-0.0000005933465577,0.1453316218,0.145328374,1.228577967,-1.185919901,2.414497867,1.895330171,0.07667878877,0.0211212803,0.02774688889,1056.309948,0.00004073654086,65.4296875,0.0007395827089,95.13923805,85.57128906,0.00004073654086,10.26539591,0.9666850532,155.9120086,472.8673396,0.01148533763,490.8470715
9,0,-4.053007857,49.8755673,50.02693234,81.39158833,-179.0596875,260.4512758,1.221529196,40.83043407,2487.572214,51.58799631,0.9765625,3293.009846,1.407288095,0.9765625,3.712752388,0.9959644825,7.462099844,13.70279795,33.1415725,35.85462639,96.0769721,-137.5118301,233.5888022,1.165255247,28.4414703,1098.363828,26.41106773,0.9765625,967.5446229,1.402500958,1.171875,3.879601491,0.9989701222,12.01819913,7.875365801,176.3801714,176.5096715,384.098365,-219.7841061,603.8824712,1.213292382,145.3731797,31109.96488,631.3623571,0.9765625,42410.77822,1.431259596,1.171875,3.146416557,0.9997027158,6.938129616,1.290932829,0.4333250443,1.361682653,2.203376027,0.3748263251,1.828549702,0.3356681577,1.290932829,0.187770594,0.03718545524,0,5.193899463,0.2901400177,0,1.731706708,0.9999614059,2.223929791,-0.04263570539,0.4183386999,0.4203965415,1.133559275,-0.7020644277,1.835623702,1.206516737,0.3467326123,0.1750072678,0.00364182976,0.9765625,0.2627479408,1.439884583,1.171875,3.293196151,0.9993258954,7.10526663,0.08888286407,0.1346802069,0.1613363102,1.016855417,-0.246931429,1.263786846,1.19286379,0.1129049335,0.01813875813,0.0005710404968,0,0.02803314629,0.9946487579,0.78125,3.812803769,0.999579278,6.577697293,,0.000002116831066,0.01150588351,0.01150560777,0.1047912255,-0.1233178126,0.2281090381,1.407818013,0.008172848627,0.0001323853554,0.005074363045,148.7224444,0.0000002652971569,95.82519531,0.00004794404545,140.3003111,106.9335938,0.0000002652971569,10.62534062,0.7292058649,27.90797535,2.762014194,0.001318405888,3.118449222,-0.000001330801134,0.02506664059,0.02506603947,0.2442050524,-0.2200331505,0.4642382029,1.762149126,0.01422503931,0.0006283364704,0.006829725545,184.1802099,0.000001206791536,95.82519531,0.00004472991439,88.27125444,71.2890625,0.000001206791536,10.15690281,0.9583834422,102.344657,13.10455098,0.00221761395,14.21122859,-0.00001035950951,0.03948599653,0.03948505092,1.252824148,-0.9475087641,2.200332912,2.347716638,0.01681889368,0.001559143922,0.007999416261,230.8203203,0.000002561908058,95.82519531,0.00006010106983,98.48520666,73.12011719,0.000002561908058,10.33899363,0.926121049,154.273605,32.50650619,0.002698382142,32.81491045,0.00001495685366,0.1420640528,0.1420606466,1.272512891,-1.169493938,2.44200683,2.086657941,0.06808209914,0.02018219511,0.01846225478,980.2368303,0.00003999808297,63.23242188,0.0004884361399,103.3492213,87.03613281,0.00003999808297,10.49627859,0.916982741,181.5644717,420.7629302,0.01044489055,445.5381533,0.000001955283614,0.06536611107,0.06536454347,0.4951866066,-0.6522590007,1.147445607,1.678232787,0.03894937077,0.004272728477,0.01856891723,486.2760134,0.000007956552992,43.09082031,0.0001261049005,85.25788011,69.09179688,0.000007956552992,10.1569095,0.9623003064,128.6460485,89.22733154,0.006070606909,91.97964413,0.00001256282259,0.08370418205,0.08370217558,0.740543971,-0.9819343117,1.722478283,1.759714999,0.04756689696,0.007006390092,0.02083441439,660.9418348,0.00001386993824,72.265625,0.0001514065048,106.9060116,93.75,0.00001386993824,10.53400011,0.9260076347,158.3080693,146.0771494,0.007312733289,155.6972299
10,0,-12.66913429,67.92252517,69.07379239,95.68311558,-299.874148,395.5572636,1.278961186,53.10757347,4613.469426,88.94271683,1.171875,4558.714897,1.052127816,0.9765625,3.539083361,0.9985156816,12.26511762,2.535986196,38.50780604,38.5796108,69.15555189,-207.7645066,276.9200585,1.550473073,24.83616562,1482.851126,28.8597062,0.9765625,959.5315441,1.17904271,0.9765625,3.864418587,0.998967025,18.65376031,-3.46697307,149.2956896,149.2908404,352.8142621,-214.390364,567.2046261,1.194350626,125.0015585,22289.20292,440.4045702,1.171875,25390.98284,1.524398228,1.3671875,3.441472809,0.9991043087,11.60852574,1.22684832,0.3591991519,1.278320332,1.970232673,0.4030168951,1.567215778,0.2927820384,1.22684832,0.1290240307,0.03277495946,0,4.067503976,0.2616936993,0.1953125,1.710544345,0.9999684801,2.169915602,0.0806495611,0.424154476,0.4316279255,1.407751845,-0.5277031357,1.93545498,1.343932774,0.3156069145,0.1799070195,0.003661968975,1.171875,0.2077039155,1.453796689,1.171875,3.618553018,0.9998311999,14.07560543,0.1983374179,0.2124373839,0.2905857959,1.476371629,-0.1978830473,1.674254677,1.003180416,0.2117638867,0.04512964209,0.001605972148,0,0.1099067617,0.820323106,0.390625,3.481487673,0.9997490331,4.287523686,,-0.00001823890684,0.01418397726,0.01418366778,0.1218458855,-0.1290277105,0.2508735961,1.490238033,0.009517927302,0.0002011852108,0.005474945594,167.1652248,0.0000003812115597,94.7265625,0.0000422993713,115.8418121,90.57617188,0.0000003812115597,10.57769177,0.811859538,55.09009706,4.510070455,0.001556746539,4.688809822,-0.000003347705917,0.02445918399,0.02445863034,0.1798569219,-0.2133438871,0.393200809,1.539217098,0.01589066547,0.0005982516816,0.0085746674,201.3483237,0.000001189554474,94.7265625,0.00003881128977,84.21634239,62.37792969,0.000001189554474,10.17482262,0.9471773586,100.9694748,13.22571874,0.002495619293,13.80346758,-0.000005463045019,0.04549624064,0.0454952107,0.7583601144,-0.5613268689,1.319686983,2.361807586,0.01926331379,0.002069907913,0.006898648598,290.9181357,0.000004335926082,94.7265625,0.00005094104334,98.4206723,81.0546875,0.000004335926082,10.4780027,0.941694014,193.214013,45.72000211,0.003102898958,49.19751546,0.00001828172409,0.07084364124,0.07084203933,0.6760415339,-0.5602458204,1.236287354,1.822040177,0.03888149238,0.005018821504,0.01474849326,663.5013165,0.00001037437747,52.85644531,0.00009077788852,121.7386735,106.4453125,0.00001037437747,10.84085026,0.8654164767,182.900314,112.209136,0.006178407604,121.5691514,0.00003614999318,0.08848770157,0.08848570514,0.9712078124,-1.105760968,2.076968781,1.756861386,0.05036692268,0.007830073329,0.02175768836,646.6410868,0.00001584852217,52.734375,0.0002145431149,86.55053878,72.63183594,0.00001584852217,10.1489757,0.9736679641,141.7659327,172.9278849,0.007627596738,192.0006283,0.00001492496504,0.1180732342,0.1180705614,1.507460359,-1.164841793,2.672302152,2.109125137,0.05598209047,0.01394128864,0.02037297218,873.3079103,0.00002870147471,70.92285156,0.0002746974911,111.708633,99.609375,0.00002870147471,10.59489026,0.9338965684,193.683659,308.250224,0.008626130853,343.0275883
11,0,-1.481389345,35.8663358,35.89022182,65.97549113,-222.8750432,288.8505343,1.416039478,25.32862703,1286.394044,23.90718218,0.78125,991.7140021,1.480750058,1.26953125,5.012486954,0.9994046994,19.80624269,-1.658286038,36.95348978,36.98378308,112.567028,-163.1838274,275.7508554,1.39541637,26.48205264,1365.560407,26.19283601,0.78125,2970.46181,1.115013578,0.78125,3.981464845,0.9995846857,6.835313288,1.001203889,145.0905161,145.0668691,341.3227113,-202.7703276,544.093039,1.245305107,116.5100145,21051.25786,424.8841897,0.78125,39014.46215,1.191517958,1.3671875,3.455044889,0.9999682522,7.224378055,1.171763451,0.2785830215,1.204412344,1.738718343,0.4719501794,1.266768164,0.2377468091,1.171763451,0.07760849985,0.02908918175,0.09765625,6.967288238,0.1655610104,0.09765625,1.785484574,0.9999806635,2.112171274,-0.03743641737,0.2531990887,0.2559048954,0.7338844048,-0.4063578943,1.140242299,1.235475109,0.2049406636,0.06410977852,0.001345882877,1.46484375,0.1157917975,1.428751848,1.46484375,4.071492514,0.9998704065,9.444526378,0.005429590692,0.1462842136,0.1463576371,1.19012757,-0.4514429375,1.641570508,1.513390971,0.09665989584,0.02139907115,0.0003982635231,0.78125,0.02062227219,1.232377387,0.9765625,4.708652093,0.9996562272,17.03408935,,-0.00000147869044,0.03328541446,0.03328484541,0.2511333856,-0.2778826792,0.5290160648,1.559951992,0.02133746079,0.001107918816,0.01065570181,381.2607948,0.000002247566594,34.05761719,0.00004131125297,82.80758814,64.33105469,0.000002247566594,10.14604029,0.9377216628,142.8485333,32.40242007,0.003229665509,33.57440977,-0.00001151379331,0.02606077036,0.02606032734,0.3488553301,-0.4091057782,0.7579611083,1.740534597,0.01497285398,0.0006791637519,0.007137567824,286.7771794,0.000001069218417,92.65136719,0.00003037251465,97.2797814,83.0078125,0.000001069218417,10.41181061,0.9412341489,147.4991234,19.88173727,0.002296030993,19.81712978,0.000003967565085,0.05015622897,0.0501553716,0.5083661563,-0.6188563188,1.127222475,1.993470625,0.02516025485,0.002515647305,0.01026356354,454.6251066,0.000005369724842,39.55078125,0.00007825609284,88.68261134,72.99804688,0.000005369724842,10.27817217,0.9481305758,175.4732145,73.58068985,0.003973870373,83.56110258,0.00005136489004,0.163298659,0.1632958752,1.413796041,-1.292083084,2.705879125,2.355186651,0.06933576112,0.02666645204,0.0182972744,1288.836106,0.0000528290648,61.88964844,0.0006537299941,93.21937585,79.95605469,0.0000528290648,10.36059373,0.958622563,193.2130804,779.871454,0.01059041978,841.3195586,0.00002341213167,0.07889962647,0.07889828099,0.7385737308,-0.6975340524,1.436107783,1.701535347,0.04636966642,0.006225151057,0.02089677524,641.4464424,0.00001175196096,41.015625,0.0003035788772,68.44257758,54.93164063,0.00001175196096,9.648846217,0.9853398515,113.3680943,182.2819098,0.006706709938,196.3197744,0.0000217091295,0.06395013511,0.06394904543,0.5624183682,-0.7324143214,1.29483269,1.650701929,0.0387411767,0.00408961978,0.01953877482,686.0724809,0.000008192165816,75.68359375,0.0001523744269,91.40683667,76.90429688,0.000008192165816,10.28908223,0.9591229834,167.0189839,119.6230232,0.005721347834,124.6147564
12,0,-2.21201167,59.10013485,59.12754603,101.2160055,-274.2609184,375.4769239,1.323065795,44.66908227,3492.82594,73.0869413,0.9765625,6153.109965,1.187029194,0.9765625,3.277673761,0.999077276,6.270187067,11.66410955,79.34441707,80.1786128,193.3096606,-139.9886225,333.2982831,1.261563928,62.89369515,6295.53652,127.3917796,0.9765625,14505.80322,1.142721739,0.9765625,2.624694073,0.9999483822,4.748277949,-2.445292001,150.6262947,150.6105166,322.9888397,-193.6461133,516.634953,1.180764654,127.5667375,22688.28065,452.4683124,0.9765625,47400.44951,1.296633997,0.9765625,2.488977005,0.9999745014,4.730947253,1.207821877,0.3658018226,1.261975183,1.951159878,0.3822408043,1.568919074,0.302860736,1.207821877,0.1338109734,0.0317585441,0,5.020391367,0.2284795166,0,1.48427535,0.9999741406,2.182235554,-0.005294030658,0.3101592995,0.3101311211,0.9403476963,-0.34199103,1.282338726,1.264909488,0.2452027616,0.09619879109,0.001957135896,0.9765625,0.1668600768,1.517744969,1.171875,3.044109996,0.9998650684,5.742346429,0.0814181049,0.2138871426,0.2288121002,0.7309602552,-0.4990962663,1.230056522,1.095447651,0.1952509026,0.04574770976,0.001054431517,0.9765625,0.05946430469,1.267860313,0.9765625,3.62189691,0.9993900135,10.57799444,,-0.000008607392824,0.03883619062,0.03883538667,0.3104021367,-0.3040300449,0.6144321815,1.557581953,0.02493364188,0.001508249702,0.01219092013,348.8254298,0.000003082874943,35.40039063,0.00006681471666,80.34574202,61.88964844,0.000003082874943,10.03513823,0.9473949586,123.5091818,36.53464668,0.00375420239,39.62884872,-0.00000158423873,0.02449863806,0.02449813036,0.1496574903,-0.2572807729,0.4069382632,1.614387904,0.01517518683,0.0006001832667,0.007492142073,252.5309195,0.000001177344719,96.31347656,0.00003049286674,104.0118261,89.96582031,0.000001177344719,10.50601279,0.9311989873,145.6476875,14.55371201,0.002375849595,15.25257376,-0.00000490449676,0.06721563699,0.06721424408,0.7892751572,-0.9698887105,1.759163868,2.034872431,0.03303186773,0.004517941856,0.01264437111,514.0017245,0.000008609564601,41.38183594,0.000146880442,95.09270011,77.02636719,0.000008609564601,10.33620555,0.9397918935,150.1665952,110.0142162,0.005376538835,127.1875681,-0.000003459567088,0.1720124228,0.1720088578,1.435267675,-1.361664801,2.796932477,2.23364001,0.07700991299,0.02958827361,0.02124079605,1240.415491,0.00006558117568,57.12890625,0.0008769234538,100.9502613,87.64648438,0.00006558117568,10.42806507,0.9417339176,164.8728459,713.8165594,0.01208034264,756.7580569,0.00005636618851,0.1019317302,0.1019296332,0.9745140502,-1.105756668,2.080270718,1.659379172,0.06142763027,0.01039007763,0.02798818488,749.884185,0.00002013389,51.26953125,0.0005368925982,75.29612327,60.91308594,0.00002013389,9.825876203,0.9782414357,113.5991476,250.8078599,0.009028578783,269.156408,0.00001107836233,0.06363149732,0.06363017949,0.872886265,-0.7538958196,1.626782085,1.650664514,0.03854901877,0.004048967451,0.019778343,570.6375478,0.000009054376748,46.02050781,0.0001065850841,96.38639509,84.59472656,0.000009054376748,10.37834017,0.951108023,154.8805768,97.71619578,0.005819364393,106.5068646
13,0,3.534164946,26.95367606,27.17898238,42.53142296,-103.3371264,145.8685494,1.180851844,22.82562051,726.5006532,15.52006465,0.78125,1607.090658,1.368784642,0.87890625,4.359360365,0.999286261,7.14170775,2.996098167,37.25218501,37.36496373,75.0195986,-92.5841552,167.6037538,1.267086703,29.39987053,1387.725288,28.53562614,1.5625,2980.372419,1.408301038,1.5625,3.594208213,0.9999139547,7.070216425,2.36939855,168.3538856,168.3365059,391.0162041,-201.970682,592.986886,1.246303795,135.0825427,28343.03079,559.7324771,0.78125,50925.8853,1.274887804,1.46484375,3.366239789,0.9999651301,6.188644248,1.193290085,0.3574021088,1.245642734,1.954769729,0.3818263478,1.572943382,0.2995098287,1.193290085,0.1277362674,0.03087017277,0.09765625,7.196556905,0.2210800076,0.09765625,1.999942057,0.9999783796,2.178379457,-0.1023056111,0.2239651238,0.2461839217,0.7098602314,-0.4546353444,1.164495576,1.021209693,0.2193135508,0.05016037669,0.001161413777,0.78125,0.09131101064,1.209005431,0.87890625,4.138337275,0.9999349163,8.566415971,0.1105328169,0.05920712852,0.1253856834,0.3744039291,-0.06151253649,0.4359164656,0.5305344452,0.1115990282,0.003505484068,0.0003118694007,0.09765625,0.06054717302,0.573559844,0.09765625,3.051799877,0.9995561646,2.572275066,,0.000009103496741,0.01570034959,0.01570004611,0.1673616682,-0.1247634391,0.2921251073,1.495802305,0.01049627317,0.0002465009773,0.005955031972,243.1733118,0.00000048855447,99.85351563,0.00001188017475,134.8260957,108.7646484,0.00000048855447,11.00278363,0.7816982072,176.5934765,6.322874969,0.001650279791,6.76322487,-0.000008066521792,0.01544655139,0.01544625232,0.1927553105,-0.1502948278,0.3430501383,1.746175917,0.008845930835,0.0002385959498,0.00429096638,183.3402172,0.0000004714998811,99.85351563,0.00001074135118,113.8037388,96.06933594,0.0000004714998811,10.63120778,0.8988928847,178.1158244,6.130009665,0.001366145471,6.39538504,-0.000004679227298,0.01953070441,0.01953032417,0.3778515958,-0.3084024909,0.6862540867,2.006651365,0.009732983394,0.0003814484149,0.004714237096,200.5977506,0.0000007955429797,54.56542969,0.00001274423273,98.42978211,71.16699219,0.0000007955429797,10.43329547,0.8908160252,182.1775121,9.791555258,0.001571524829,10.72409282,-0.0000376630126,0.1541893771,0.1541863753,1.239916952,-1.18493881,2.424855762,1.83784486,0.08389684048,0.023774364,0.02871299634,1678.046006,0.00004634728791,64.94140625,0.0004827884375,119.0827546,95.82519531,0.00004634728791,10.75834972,0.8532780473,190.4511561,609.6501299,0.0128278072,655.1459799,-0.00004780373383,0.08162026033,0.08161868291,0.7064106533,-0.7121450661,1.418555719,1.76064276,0.04635821768,0.006661866897,0.01915891794,627.377966,0.0000136918867,71.77734375,0.0002678605008,76.05258895,67.3828125,0.0000136918867,9.797713051,0.98062531,135.4358221,172.1344156,0.006734858205,187.0234049,-0.0000178391957,0.05834747251,0.05834633759,0.7113853814,-0.683451617,1.394836998,1.622134395,0.03596956743,0.003404427549,0.01839320479,670.7005167,0.000006560626144,59.69238281,0.00006537115525,114.0707294,99.73144531,0.000006560626144,10.66160605,0.906609205,175.1257458,87.33674837,0.005397104471,88.42709459
14,0,-0.933525396,50.61332008,50.61062645,84.66931312,-106.4820887,191.1514018,1.152536083,43.91473796,2561.70817,52.13475357,0.9765625,5897.981079,1.08097932,0.9765625,2.12871545,0.9999538284,3.93817442,9.080944671,18.86856344,20.93626597,44.97972105,-42.0708328,87.05055385,1.033508598,18.25680355,356.0226863,9.038299836,1.7578125,548.1958599,1.191684608,0.9765625,3.305527742,0.9997857284,7.706007522,1.389859682,150.185971,150.158861,334.6557798,-199.951977,534.6077569,1.232995722,121.8057519,22555.82588,446.8803856,1.7578125,34074.73726,1.359315679,0.9765625,2.434226534,0.9999483142,5.104202631,1.152992796,0.3540157666,1.206094348,1.783849185,0.3222639279,1.461585258,0.3070407446,1.152992796,0.125327163,0.02889969873,0,4.833068026,0.2259105729,0,1.426396052,0.9999749949,2.187394815,0.08467911219,0.2846991694,0.296964591,0.8850511022,-0.250511904,1.135563006,1.455996452,0.1955356203,0.08105361706,0.001745078309,0.9765625,0.129174575,1.284353435,0.9765625,2.982994395,0.9998828275,5.897493507,0.1589280677,0.07044199098,0.1738332207,0.3472157928,-0.07683457241,0.4240503653,0.4376832249,0.1609428623,0.004962074093,0.0006133842385,0,0.0920612743,0.4283591825,0,2.029221012,0.9997196694,2.391455739,,-0.0000009285690905,0.01300143342,0.01300114853,0.13995209,-0.1197825589,0.2597346489,1.425422457,0.009121108873,0.0001690372709,0.005528814679,187.0082473,0.0000003449132363,98.51074219,0.00002369116554,140.1809709,107.7880859,0.0000003449132363,10.98650793,0.7217539264,94.63906881,3.857479601,0.001472243462,4.226968265,-0.000001748439679,0.01952103692,0.0195206092,0.1592942425,-0.1526941764,0.3119884189,1.632747243,0.01195594542,0.0003810708824,0.005895543314,175.1958107,0.0000007565302773,98.51074219,0.00002222358616,88.04398779,70.06835938,0.0000007565302773,10.16186413,0.9432813939,117.8081337,8.794243498,0.001806563009,9.567210244,0.000007175694787,0.04458348682,0.04458251037,0.634267763,-0.8198932013,1.454160964,2.409112989,0.01850618341,0.001987687297,0.006570947806,299.3587296,0.00000400003409,72.14355469,0.00004779839126,101.6700001,83.37402344,0.00000400003409,10.51862503,0.9329094087,186.6323236,45.45521783,0.003025391085,50.30669452,-0.00003277964374,0.07515277511,0.07515113531,0.6255016416,-0.5875369989,1.21303864,1.945745693,0.03862415083,0.005647939607,0.01314193891,659.047652,0.00001129462009,86.54785156,0.0001182810368,109.1395106,95.33691406,0.00001129462009,10.60143882,0.905609469,175.7923509,128.8786006,0.005971328392,135.2313012,0.0000143281448,0.05854063724,0.05853935609,0.6620520535,-0.6010344803,1.263086534,1.703006388,0.03437487825,0.003427006208,0.01632647177,467.0333962,0.00000714273435,45.65429688,0.0001572793257,82.90910527,64.20898438,0.00000714273435,10.07508047,0.9617606407,123.2148274,78.73229102,0.005259709521,80.03931824,0.000007687344126,0.1605925973,0.1605890782,1.329388587,-1.149360812,2.4787494,2.006068274,0.08005340569,0.02578998232,0.02596186865,1074.616538,0.00004933847265,37.59765625,0.000691404149,88.60407552,75.80566406,0.00004933847265,10.21510537,0.9563033866,140.2178367,589.0114662,0.01271808777,632.5545115
15,0,-4.578957625,60.35985447,60.51810979,104.6453796,-137.7376805,242.38306,1.188453975,50.78855029,3643.312032,73.96347326,0.9765625,7681.366686,1.226692161,0.9765625,2.807921079,0.9993307721,6.273782392,9.673669367,60.83678253,61.58593643,135.2339653,-94.76086519,229.9948305,1.25002662,48.66838957,3701.114109,73.35063239,0.9765625,7663.125733,1.235539776,0.9765625,2.718565289,0.9996539221,6.439063743,-1.560446549,152.8104347,152.7798689,333.3419656,-191.0498363,524.3918019,1.191993221,128.1974025,23351.02894,465.9895108,0.9765625,36315.66511,1.454942319,1.171875,2.888339424,0.9997934439,7.672151956,1.208006446,0.3700688449,1.263392837,1.928094712,0.3880818671,1.540012845,0.3063467468,1.208006446,0.13695095,0.03198151887,0,4.719273857,0.2445830654,0,1.570565205,0.9999649373,2.186396014,0.09449955065,0.3318389747,0.3449517932,1.072600364,-0.3244460388,1.397046402,1.375036654,0.2413310029,0.1101171051,0.002446714322,0.9765625,0.2276568062,1.291600467,0.9765625,3.218485062,0.9999187439,6.94567574,0.1710402232,0.1421724494,0.2223905803,0.4961173084,-0.1748414444,0.6709587527,0.7645438801,0.1859572133,0.02021300537,0.0009778389687,0,0.09521218538,0.6456332886,0.1953125,2.874612534,0.9996900166,3.378284089,,-0.000001721245486,0.0148255498,0.0148251924,0.1473626159,-0.1765000029,0.3238626189,1.562997995,0.009485328742,0.000219796927,0.005298437991,176.8707681,0.0000004540541044,151.4892578,0.000004506488439,133.9611377,107.7880859,0.0000004540541044,11.0501647,0.7504459428,177.3351291,4.55793964,0.001551657403,4.943170277,0.000000648865444,0.01312904253,0.01312872595,0.1006040456,-0.1063037245,0.2069077701,1.573705713,0.008342755843,0.0001723717577,0.004353603936,132.8769386,0.0000003495985185,44.31152344,0.000005095998237,103.4015446,77.88085938,0.0000003495985185,10.57450303,0.8751436966,141.4255818,3.578167779,0.001331897859,3.752506705,-0.000006512528737,0.02900801685,0.02900731808,0.3295027345,-0.3631370031,0.6926397376,1.894572575,0.01531111409,0.0008414650416,0.006743299687,228.9565059,0.000001622066862,41.015625,0.00001949925288,96.200913,73.85253906,0.000001622066862,10.4059054,0.9224870318,148.5290305,17.46590207,0.002445984315,18.60074062,-0.000003212912028,0.06144719263,0.06144571097,0.531002826,-0.7065761306,1.237578957,1.883436428,0.03262504204,0.003775757483,0.01264475677,477.7634079,0.000007843073461,65.91796875,0.00009845982829,103.378037,88.01269531,0.000007843073461,10.45443823,0.9343556735,152.2524524,78.2896042,0.004954648976,83.74710294,-0.00004588089831,0.09169362129,0.09169142166,0.8634948211,-0.7645854987,1.62808032,1.58970412,0.0576796777,0.008407720186,0.0277441969,676.7657532,0.0000166691763,56.51855469,0.0002834499433,79.88555469,66.16210938,0.0000166691763,9.961198805,0.9723994917,118.5588682,174.9569517,0.008614712392,180.9943341,0.000009567396287,0.06389291001,0.06389137,0.5365575285,-0.4659267761,1.002484305,1.597907556,0.0399853607,0.004082303949,0.02014809828,592.345504,0.000008351765494,76.53808594,0.000100697362,109.212483,94.97070313,0.000008351765494,10.54809077,0.9232783875,148.1073706,84.69491463,0.005996937545,90.72343511
1,0,2.176775016,83.82058906,83.82931484,260.6799617,-339.6050132,600.2849749,1.316637091,63.66263691,7025.891151,145.2840669,0.9765625,6089.026685,4.897535439,3.3203125,5.402267986,0.9567563821,13.25619946,-2.835512842,66.21794752,66.26320625,122.657767,-189.2581358,311.9159028,1.250141288,52.96837097,4384.816573,86.98043471,0.9765625,7206.96873,2.448630648,1.171875,3.456200057,0.985522566,6.045301303,-0.09282159613,192.6556209,192.61073,435.6195938,-314.3263685,749.9459623,1.231561236,156.4320272,37116.18826,745.718123,0.9765625,51170.24257,1.792299699,1.7578125,3.008284801,0.9971860274,6.491088224,1.194594915,0.6533228013,1.361502371,3.509291691,-0.1385640768,3.647855768,0.5460356297,1.19648383,0.4268306827,0.03707844634,0,4.986250605,1.071297373,0,2.490352683,0.990314488,2.596345937,0.1298985579,0.9149012516,0.9238656316,3.347924977,-4.993673734,8.341598711,1.835210426,0.4985266206,0.8370443003,0.01739161418,0.9765625,0.322230079,10.2022686,7.6171875,6.641462822,0.8890177006,28.4591111,-0.06488096881,0.3452394457,0.3512039983,1.440965032,-2.131062363,3.572027395,1.552471283,0.222380568,0.1191902748,0.002503467163,0.9765625,0.0289130709,11.99300802,11.71875,6.810912847,0.821034087,38.38902786,,-0.000007738495883,0.09886675482,0.09886455932,0.5688565097,-0.5917810278,1.160637538,1.530596186,0.0645936242,0.009774635208,0.03159356693,920.7638054,0.0000197638669,76.53808594,0.0002803820681,91.16741242,76.53808594,0.0000197638669,10.21498986,0.944379568,133.3466326,220.5021183,0.009648575475,244.7882682,-0.00001329112475,0.07796666615,0.07796493567,0.5820217131,-0.6309002697,1.212921983,1.53395014,0.05082737967,0.006078801031,0.0270991819,868.2083326,0.00001252175767,70.55664063,0.0001126222475,114.4494819,100.0976563,0.00001252175767,10.61793612,0.9148617927,170.2024608,136.9359153,0.007625139843,143.4242596,-0.0000008974495215,0.03016360511,0.0301629352,0.3570573809,-0.2674140259,0.6244714068,1.597391359,0.01888304011,0.0009098430734,0.01032325636,236.6711381,0.000001792850862,36.62109375,0.00007193282572,75.76911069,44.921875,0.000001792850862,9.888658569,0.906085874,105.3684305,20.49190082,0.003023313454,24.26442022,0.00001744676911,0.02079142833,0.02079097388,0.2003408654,-0.1996229475,0.3999638129,1.691667798,0.01229049129,0.0004322834919,0.006043157182,193.6800129,0.000000885541857,43.33496094,0.00001047538191,93.67833115,75.1953125,0.000000885541857,10.4452555,0.9250765531,152.5386883,9.734891322,0.001970979508,10.34672137,0.000001724432295,0.05918362306,0.05918230864,1.073652593,-0.6088032222,1.682455815,1.967182851,0.03008547122,0.003502701239,0.01174391423,487.7370987,0.000007198386193,54.93164063,0.00007249533679,110.2949363,89.35546875,0.000007198386193,10.7428339,0.8693644861,174.1861841,78.86876834,0.00489102648,83.48823153,0.000005506967958,0.09257159984,0.09256954402,0.8406021639,-0.7721522254,1.612754389,1.717839645,0.0538883825,0.008569501097,0.02288315866,904.3122699,0.0000166212617,122.4365234,0.0001580973379,114.6584544,98.99902344,0.0000166212617,10.69488131,0.9073700495,171.2662373,193.8501681,0.008283689341,206.8151586
2,0,-8.608822642,44.49689709,45.31285857,96.513615,-173.2382747,269.7518897,1.103089427,40.33843132,1979.973851,41.9558127,0.87890625,4066.805983,0.9877392007,0.87890625,4.111886733,0.9997663891,6.857976005,-8.36825394,22.19637638,23.71708535,39.84291054,-83.08385691,122.9267675,1.317846149,16.84291933,492.6791244,11.40750797,1.66015625,577.4532216,1.284791863,1.171875,4.450627437,0.9997650785,11.89892683,3.087459254,167.7296169,167.7228546,389.147736,-207.8252,596.972936,1.236434949,135.6558362,28133.22439,562.5040898,0.87890625,52550.60267,1.282336029,0.9765625,3.499707793,0.9999690497,5.609277819,1.0802537,0.3816904943,1.145676472,1.90996172,0.1476781929,1.762283527,0.3533341235,1.0802537,0.1456876334,0.02626235579,0.09765625,5.895557122,0.2892328351,0.09765625,2.225611296,0.9999698251,2.248524396,-0.05092051508,0.2490556467,0.2541566352,0.74997798,-0.4137349715,1.163712951,1.206462181,0.2064346902,0.06202871514,0.001299552701,1.66015625,0.1010232755,1.636651783,1.66015625,4.33726017,0.9997867047,8.736697916,-0.1601485157,0.08574223858,0.1816485474,0.2590791716,-0.3594743024,0.618553474,0.512028018,0.1674561461,0.007351731477,0.0006698278551,0.09765625,0.1305902878,0.4856593124,0.09765625,2.991837305,0.9994686576,2.571660978,,0.000002173142588,0.02058099836,0.02058055748,0.2113072117,-0.1820249504,0.3933321621,1.496236926,0.0137551734,0.0004235774937,0.007793420613,219.6334098,0.0000008415864773,43.09082031,0.00002281254796,93.09369954,66.52832031,0.0000008415864773,10.36124165,0.9006738706,121.7255252,9.884965836,0.002241182604,10.23427645,-0.0000005320734288,0.01923892763,0.0192385154,0.2110767118,-0.1614910913,0.3725678031,1.671221216,0.01151189767,0.0003701363362,0.005900264244,206.9850807,0.0000007174963647,99.48730469,0.00002232728176,109.8464711,90.08789063,0.0000007174963647,10.59213756,0.8752187968,136.9883629,8.645839386,0.00182631175,9.118576345,0.00001076510578,0.08371343436,0.08371164131,0.7637710704,-1.262466485,2.026237556,1.610022648,0.05199519055,0.007007939093,0.02716754309,712.7566812,0.00001275478915,42.23632813,0.0002383194292,83.51611703,61.88964844,0.00001275478915,10.11226529,0.9376429432,121.5913521,164.5945321,0.00824470203,178.6053052,0.0000382680633,0.1526327684,0.1526295027,1.404640846,-1.1833725,2.588013346,1.983698942,0.07694351452,0.02329676198,0.02739145551,1200.240494,0.0000495468265,37.96386719,0.0006391600203,99.57350301,83.37402344,0.0000495468265,10.41790742,0.9381508314,161.3793319,543.612656,0.01256327031,574.2884285,-0.00002494532349,0.1106569756,0.1106546074,1.277141799,-1.027867517,2.305009317,1.760210255,0.06286577146,0.01224496625,0.02801492853,1018.629915,0.0000252672282,64.69726563,0.0002600999153,110.6627718,97.29003906,0.0000252672282,10.60344364,0.923295081,167.1090368,285.7564249,0.00977453338,300.7766848,0.00001610323422,0.1483535405,0.1483503625,1.26429882,-1.284862637,2.549161457,1.921255205,0.07721698819,0.02200877297,0.03212697543,1362.002584,0.00004287668328,42.48046875,0.0004273355861,122.1255209,106.0791016,0.00004287668328,10.76264683,0.9036227377,177.2164011,515.3099171,0.01252291102,576.0594311
3,0,0.1422560005,33.51923259,33.51229417,93.18298812,-64.81154342,157.9945315,1.277168888,26.2449492,1123.538954,21.82523152,0.87890625,1825.379807,1.360671655,1.3671875,3.8444112,0.9999778105,5.758936002,-2.417448823,28.50678862,28.60297231,79.70184223,-56.22127894,135.9231212,1.274782693,22.3620769,812.6369975,16.02544843,1.7578125,1470.687278,1.456904892,1.66015625,3.812493081,0.9998542,5.958111343,1.245049927,164.1118652,164.0811399,372.4478416,-198.0254425,570.4732841,1.219155988,134.611048,26932.70432,542.827883,0.87890625,54801.12162,1.293793,0.9765625,3.510353426,0.9999731563,5.025487098,1.120615298,0.3550787196,1.175502055,1.923864519,0.3448088317,1.579055687,0.3168604963,1.120615298,0.1260808971,0.0276977526,0.09765625,6.326459746,0.2589982371,0.09765625,2.15258045,0.9999584053,2.199668871,0.04670729142,0.3447486184,0.3478244401,1.095839384,-0.3224863257,1.41832571,1.473654932,0.2339412104,0.1188516099,0.002427507767,1.7578125,0.2158415064,1.694579627,1.66015625,4.184898596,0.999880256,6.346059374,-0.1605353592,0.07858524151,0.1787304508,0.07528041179,-0.4525137323,0.5277941441,0.4841424451,0.1623184299,0.006175640184,0.0006384903201,0.09765625,0.1307410119,0.4629240839,0.09765625,2.773793718,0.9997149549,2.477725647,,0.000001835060943,0.01513151669,0.01513118454,0.1792051542,-0.150823207,0.3300283612,1.44189753,0.01049416922,0.0002289627972,0.006196598951,179.560947,0.0000004379206171,98.87695313,0.0000495719568,106.3331601,81.42089844,0.0000004379206171,10.3288197,0.8480867921,76.3384238,5.218560093,0.001653415265,5.696380912,0.000004092746626,0.01343594901,0.0134356546,0.1316242606,-0.1490733677,0.2806976283,1.44768526,0.009280987645,0.0001805247257,0.005558935423,154.84728,0.0000003631927837,98.87695313,0.00004714077629,103.4465441,71.41113281,0.0000003631927837,10.17561207,0.8226105911,68.30110999,4.11222781,0.001514203884,4.474471532,-0.000002085419279,0.02266038049,0.02265988301,0.2741175162,-0.2608776252,0.5349951414,1.715126665,0.01321207404,0.0005134928438,0.006655732996,217.4343615,0.00000109009573,98.87695313,0.00004474453799,97.39966288,76.66015625,0.00000109009573,10.38163392,0.9103571211,129.4089094,11.70413327,0.002081027493,12.69352696,0.000000455579313,0.07420774023,0.07420611078,0.732589517,-0.6584329215,1.391022439,1.766249159,0.0420143103,0.005506788711,0.0171955845,685.2569583,0.00001149678337,66.28417969,0.0001090919089,109.8141343,96.80175781,0.00001149678337,10.58457271,0.9240213813,167.5890036,125.4246661,0.006423906075,128.656881,0.00005793604002,0.089063765,0.08906182819,0.7760240237,-0.7588443711,1.534868395,1.623927526,0.05484466738,0.007932354237,0.02662066221,771.9965711,0.00001594988728,40.64941406,0.000245202366,87.77411955,72.02148438,0.00001594988728,10.19122971,0.9565159178,130.2778754,180.6942668,0.008429914102,191.4295078,-0.000004387891576,0.1421003789,0.1420972587,1.416634074,-1.143203297,2.55983737,1.915059163,0.0742015608,0.02019251768,0.02951145858,1345.383444,0.00004206301103,81.29882813,0.0003600666492,129.7165979,118.2861328,0.00004206301103,10.80950537,0.903484491,184.5805936,459.8218952,0.01173793299,474.9344504
4,0,-7.236868634,50.49913104,51.00293676,103.3731872,-165.358269,268.7314562,1.229903745,41.05941725,2550.162236,52.46185214,0.9765625,3969.518198,1.424626897,1.171875,3.419098076,0.9987636672,6.97549602,-9.575559133,29.57750477,31.08209251,57.36635569,-93.07177709,150.4381328,1.169038492,25.30071077,874.8287882,19.43828124,0.9765625,1959.895182,1.130390087,0.9765625,2.956350649,0.9997209591,5.500920538,0.4294653115,178.0978454,178.0552352,391.6070783,-228.7294526,620.3365309,1.216224015,146.4350673,31718.84255,630.8277804,0.9765625,52714.0891,1.474111834,1.171875,2.547959549,0.999961468,5.36740698,1.169892926,0.4885939792,1.267776766,2.171178772,0.1452519892,2.025926783,0.4176399125,1.169892926,0.2387240765,0.03191916877,0,4.57828224,0.3737390918,0,1.79959094,0.9999517897,2.347342357,0.06125100656,0.4187855644,0.4231407618,1.211404733,-0.5789940428,1.790398776,1.42843361,0.2931781789,0.175381349,0.003527491197,0.9765625,0.2819384252,1.608349584,1.171875,3.157995982,0.9996163599,6.100634519,-0.1912813096,0.1192071272,0.2253707991,0.41472707,-0.4798335196,0.8945605896,0.593741876,0.2007726456,0.01421033918,0.001021593548,0,0.122443508,0.4845341189,0.1953125,2.511775201,0.9998374049,2.774523168,,-0.000001037051163,0.01877210615,0.01877170481,0.1272858016,-0.1412587079,0.2685445095,1.470361769,0.01276699826,0.0003523919695,0.007151208533,197.9674915,0.0000007027369577,89.84375,0.00001548859538,91.06621525,70.92285156,0.0000007027369577,10.31365597,0.9191025034,132.2092542,8.24549841,0.002006812453,8.747689571,0.00001391232768,0.03206587346,0.03206519087,0.4267477254,-0.3968129493,0.8235606748,2.02396422,0.01584310293,0.001028220241,0.007017960595,215.4717661,0.000002150071793,62.86621094,0.00004562511,69.37869976,59.20410156,0.000002150071793,9.620596154,0.9697328681,124.9105908,24.4773552,0.002501319313,25.97274583,0.000003467554433,0.05693530364,0.05693408638,0.5774656942,-0.5236663144,1.101132009,1.813362175,0.03139764599,0.0032416288,0.01267539662,408.530588,0.000006347462809,53.58886719,0.00008709414763,80.84810812,68.60351563,0.000006347462809,10.08192605,0.9712373303,131.7135018,75.83893264,0.004915702446,80.00636619,-0.000005807149816,0.04771366798,0.04771264814,0.4494323259,-0.3936433749,0.8430757008,1.758200002,0.02713779315,0.002276594112,0.01175645191,478.4063307,0.000004628799811,86.18164063,0.00004507971386,118.5139764,100.7080078,0.000004628799811,10.78479229,0.8771903044,173.9837992,53.25440046,0.004321708981,57.7608348,0.00004552334088,0.08432893757,0.08432714678,0.8973797321,-0.802950267,1.700329999,1.810403533,0.04658018835,0.007111369712,0.01870989739,699.1809513,0.00001389760698,66.65039063,0.0001388406283,98.88750593,88.13476563,0.00001389760698,10.4265563,0.9615784496,153.2393478,167.948964,0.007420688878,180.2695943,-0.000007858123102,0.1964291921,0.1964249923,1.242946555,-1.857260537,3.100207092,1.81534406,0.1082049383,0.03858442752,0.04208272118,1179.086073,0.00008123418823,35.88867188,0.001899728364,74.18916271,63.4765625,0.00008123418823,9.975921817,0.9747103898,133.2980508,902.2904166,0.01634589508,1132.028241
5,0,-11.92368043,46.61586113,48.10610382,75.98079112,-213.5979836,289.5787747,1.174332619,39.69561976,2173.038508,51.14699372,0.9765625,3266.159578,1.135937529,0.9765625,3.565384125,0.9994861174,8.632600234,-3.843738251,28.62255975,28.87286655,63.70518735,-89.53896881,153.2441562,1.251291158,22.8744202,819.2509264,17.60743496,0.9765625,1184.552991,1.101976847,0.9765625,3.364630074,0.9997734533,7.640561534,3.667844054,170.184609,170.1843712,374.8145565,-218.8286985,593.643255,1.227695491,138.6211893,28962.80115,575.7428802,0.9765625,50002.64152,1.40433781,1.171875,2.526250249,0.9999741988,5.194710442,1.146544188,0.430416357,1.224636781,1.96690385,0.2048357616,1.762068089,0.3754031999,1.146544188,0.1852582403,0.02976279971,0,4.568530848,0.3123337894,0,1.647156011,0.9999515948,2.280507649,0.03781991429,0.4423272323,0.4438381457,1.229051724,-0.528675121,1.757726845,1.342402461,0.3295041877,0.1956533805,0.003894581187,0.9765625,0.3563231113,1.433005868,0.9765625,2.89536611,0.9996694189,5.342226411,-0.2454011466,0.1225190441,0.2742729014,0.3380008777,-0.5194980309,0.8574989085,0.4818103723,0.2542889301,0.01501091616,0.001536615524,0,0.2059122067,0.4741819116,0,2.293421654,0.9995463984,2.49683126,,0.000005611347379,0.0170360933,0.01703571502,0.2198743244,-0.1787383067,0.3986126311,1.435169414,0.01187044061,0.0002902284749,0.007001585766,173.5241757,0.0000005880985353,93.75,0.00001601937879,88.69157625,60.30273438,0.0000005880985353,10.2610441,0.8920174787,116.6147878,6.531092068,0.001901393266,7.100120692,-0.000005134994553,0.028062523,0.02806189882,0.1883340547,-0.2200608601,0.4083949148,1.59113247,0.01763682379,0.0007875051971,0.008689048111,254.1120802,0.000001582955162,38.57421875,0.0000232541592,88.58733417,68.23730469,0.000001582955162,10.25654702,0.9344479851,135.1914637,17.80943533,0.002766765874,19.11622079,0.0000406318129,0.0667562419,0.06675476833,0.9062721264,-0.6768885011,1.583160627,1.754311773,0.0380526671,0.004456395832,0.01600856028,551.9251668,0.000009009363379,67.62695313,0.0001131148673,97.08834897,78.00292969,0.000009009363379,10.48552245,0.9337793649,151.067749,109.3817358,0.006271506352,107.5990995,0.000003838552888,0.04498428209,0.04498328095,0.42542943,-0.5921441643,1.017573594,1.789250846,0.02514140608,0.002023585635,0.01136355146,423.0479839,0.000004069001015,61.88964844,0.00004127530114,112.7791214,93.26171875,0.000004069001015,10.69659342,0.8907062097,172.2530547,45.46740004,0.003975604599,48.7705319,-0.000007085334928,0.07730109643,0.0772993761,0.6781066761,-0.7126953269,1.390802003,1.666486456,0.04638567338,0.005975459509,0.02278994879,571.8800206,0.00001134458944,54.44335938,0.0001894452037,75.93088622,62.01171875,0.00001134458944,9.904928219,0.9696216342,114.5673408,134.7043105,0.007101669947,140.6140547,0.00004827546804,0.2141519049,0.2141471435,1.388038417,-1.715895139,3.103933556,1.580305317,0.135512994,0.04586103836,0.0671839727,1870.52707,0.00008810758448,32.47070313,0.001818816139,84.40664817,59.5703125,0.00008810758448,10.18595059,0.9220866921,124.7287125,1032.45763,0.02159766896,1506.145938
6,0,-9.265495221,43.5135354,44.48053475,97.32605831,-155.9511423,253.2772006,1.180601654,36.85708491,1893.427763,39.46281596,0.78125,3478.480358,1.158473454,0.87890625,4.431944405,0.9985493011,9.097809773,-11.78528248,22.90120274,25.75165392,31.30376874,-97.32339968,128.6271684,1.204120869,19.0190232,524.465087,12.80452185,0.78125,1050.498632,0.8441094116,0.78125,4.096434276,0.9994524413,8.213587119,2.256827701,149.1854074,149.1725683,358.6729766,-198.0358531,556.7088296,1.243815347,119.9417645,22256.28579,441.8746572,0.78125,36730.09966,1.282371686,1.46484375,3.643351771,0.9999745276,8.685700442,1.053130608,0.3621756353,1.113643872,1.908741412,0.2229906739,1.685750738,0.3439038164,1.053130608,0.1311711908,0.02466672159,0.09765625,5.599591323,0.2614657402,0.09765625,2.154768127,0.9999764212,2.235442532,0.07266035151,0.2517709882,0.2619975968,0.9971405294,-0.2447470687,1.241887598,1.574847226,0.159870103,0.0633886305,0.00135024152,0.78125,0.09343472124,1.38972546,1.3671875,4.378095442,0.9997483271,10.64122898,-0.2248207853,0.113009,0.2516153789,0.3765099558,-0.573113433,0.9496233888,0.4800772849,0.2353975153,0.01277103409,0.00127438283,0.09765625,0.2559777659,0.299201158,0.09765625,2.712200133,0.9998524907,2.503879107,,0.000002244295038,0.01538880492,0.01538852697,0.1873195272,-0.2157053132,0.4030248404,1.520437593,0.01012129994,0.0002368153168,0.005494321851,233.1878101,0.000000469120409,64.57519531,0.000006108193981,116.5519557,87.76855469,0.000000469120409,10.8045286,0.820569212,182.048221,6.556134567,0.001601930981,6.889095623,-0.0000002387244597,0.02668640517,0.02668592289,0.312756587,-0.3528047153,0.6655613022,1.948230299,0.01369776725,0.0007121642211,0.00554392264,270.2375655,0.000001284354141,62.98828125,0.00002049679101,92.96111229,75.31738281,0.000001284354141,10.30317475,0.9278390627,149.2350015,19.8222893,0.002140591828,20.7864016,-0.000003797076629,0.05689317447,0.05689214641,0.9803054342,-0.6969186911,1.677224125,2.332574371,0.02439072262,0.003236833302,0.00830143649,521.3093497,0.000006308317572,89.59960938,0.00009334958403,110.187019,91.91894531,0.000006308317572,10.60100777,0.9028087254,198.4516634,89.55941206,0.003924691338,98.64120378,0.000004365500665,0.05072109106,0.05072017461,0.7282057651,-0.4329417763,1.161147541,1.879273627,0.02698973174,0.002572629078,0.0101130069,592.0854768,0.000005409618078,65.67382813,0.00005730214642,117.924148,99.12109375,0.000005409618078,10.77633148,0.8710586906,196.0493865,71.20824576,0.00418549113,75.01342955,0.00002087081847,0.07350983272,0.07350850719,0.7293754719,-0.9653560177,1.69473149,1.788193378,0.04110843583,0.005403695506,0.01665254463,669.0063974,0.00001099462786,53.7109375,0.0001652613693,83.52613612,71.53320313,0.00001099462786,10.06507526,0.9692545653,150.7186498,149.5051189,0.006180171911,154.5240751,-0.00001352960484,0.08085871478,0.08085725461,0.9236486005,-0.821860924,1.745509525,1.694113348,0.04772922358,0.006538131755,0.02212274494,909.8116659,0.00001348762884,84.83886719,0.000135776057,107.3014353,96.55761719,0.00001348762884,10.53892533,0.9446354427,184.2603078,181.1514821,0.007192826548,197.4620316
7,0,-9.670382262,51.17138933,52.06638414,125.6552856,-183.4624561,309.1177417,1.221013732,41.90893843,2618.511086,52.17985116,0.87890625,3604.089159,1.429143401,0.9765625,4.594095243,0.9981398586,10.20496195,-8.108227655,27.92207151,29.06978247,66.25348038,-120.0024508,186.2559312,1.284491166,21.73784628,779.6420776,14.84738582,1.7578125,723.3240276,1.306822821,1.26953125,4.669015954,0.9996850924,13.20590218,2.210315266,170.768008,170.7458222,383.5644113,-219.7647189,603.3291302,1.255687294,135.9956486,29161.71257,583.194417,0.87890625,48368.63011,1.36594112,1.5625,3.480709842,0.9999730702,5.566467395,1.129381879,0.396654797,1.196984219,2.01528492,0.1974221658,1.817862754,0.3512140617,1.129381879,0.157335028,0.02865876493,0.09765625,6.420322487,0.2874429799,0.09765625,2.214174535,0.9999679992,2.245519262,0.1091675266,0.3597927956,0.3759163254,1.238075171,-0.3439217406,1.581996911,1.508169386,0.2385625905,0.1294508557,0.00284085299,0.87890625,0.2508139532,1.368283272,0.9765625,4.113453385,0.9991712472,6.654794992,-0.1811992171,0.1605277513,0.242056404,0.4677821486,-0.5593712203,1.027153369,0.7521446318,0.2134267061,0.02576915893,0.001129134907,0.09765625,0.1744103023,0.7393902982,0.09765625,3.630660806,0.999669823,3.561774805,,-0.000003432821434,0.07431863877,0.0743171313,1.44417594,-1.529240495,2.973416434,3.586403263,0.02072233191,0.005523260069,0.006598023131,330.2426678,0.00001283132299,35.27832031,0.000273086447,93.83110968,66.04003906,0.00001283132299,10.31580504,0.8787132978,236.5244505,136.4971066,0.00340122572,174.0699394,-0.000002799876823,0.01661963901,0.01661930211,0.2472999937,-0.1945197765,0.4418197703,1.706227335,0.009740577158,0.0002762124007,0.004989982531,187.6779172,0.0000004801550637,98.38867188,0.00001513456397,107.2896581,80.20019531,0.0000004801550637,10.56439699,0.8527017747,128.2734375,6.809556463,0.001534609937,7.309350966,-0.00002666497673,0.06397343277,0.06397214062,1.208334668,-1.122880134,2.331214801,2.56476082,0.02494323535,0.0040926001,0.007984981858,439.4277613,0.00000725697735,37.23144531,0.00008417210205,101.1800818,87.40234375,0.00000725697735,10.48349673,0.9338677415,184.1193043,100.8927124,0.004003008251,107.5839978,0.00000127143643,0.07483686951,0.07483535145,0.9239980288,-0.9145166449,1.838514674,2.010414659,0.03722459402,0.005600557038,0.01349633586,693.0101114,0.00001183874987,54.44335938,0.0001301522572,112.9531706,96.31347656,0.00001183874987,10.62999732,0.8950074198,179.0130924,138.0741659,0.005720502452,147.6213452,0.00000478544105,0.1397801734,0.1397773381,1.338386016,-1.131380422,2.469766437,1.806254561,0.07738675182,0.01953849688,0.02982910204,1370.767677,0.00003770862009,69.21386719,0.0004486238837,113.0971171,96.06933594,0.00003770862009,10.64981859,0.8985289853,167.7478257,483.6350309,0.0120760275,547.6083526,-0.00002991951486,0.1005465163,0.1005444812,1.070645315,-1.054467594,2.125112908,1.851311589,0.0543109636,0.01010960194,0.02494699781,987.5340927,0.00001904590525,91.91894531,0.0002375640154,113.4802222,101.9287109,0.00001904590525,10.57583215,0.9235014638,172.996932,249.2171088,0.008258314734,261.0003303
8,0,-8.348871053,34.350247,35.34256068,72.42839658,-87.21236186,159.6407584,1.107910708,31.00452659,1179.939469,24.2303392,0.9765625,2238.171223,1.31443638,0.9765625,3.235227156,0.99888688,6.314357796,-8.188772775,33.99671769,34.96137131,57.34521083,-84.09603913,141.44125,1.167805119,29.11163614,1155.776814,24.0111144,0.9765625,2891.375636,1.065930931,0.9765625,2.460484764,0.9998570826,4.385204255,0.36681867,167.9314991,167.8930042,365.2137377,-195.263862,560.4775996,1.223742377,137.2278203,28200.98838,561.2057543,0.9765625,42308.88343,1.450268601,1.7578125,2.451407127,0.9999638236,5.160139587,1.192909052,0.4348003972,1.269643977,2.093343461,0.3246603424,1.768683118,0.3644874657,1.192909052,0.1890513854,0.03203339926,0,4.985465047,0.2937262403,0,1.60333446,0.9999718496,2.264391072,0.1444107518,0.4635983797,0.4854671721,1.433031753,-0.5290120394,1.962043793,1.391650681,0.3331284107,0.2149234577,0.004651642306,0.9765625,0.3612569941,1.39638228,0.9765625,3.082870294,0.9999554177,6.40693217,-0.1013442588,0.1651753785,0.1937548132,0.4439718228,-0.374637898,0.8186097209,0.9690303252,0.1704542925,0.02728290566,0.0007413708516,0.9765625,0.04963015874,1.019106164,0.9765625,3.244712436,0.9996036807,6.861786883,,0.00001427948185,0.009838020421,0.009837811036,0.1040525278,-0.1185654885,0.2226180163,1.466238106,0.006709701775,0.00009678664581,0.00402309931,131.8679126,0.0000001896813292,95.82519531,0.0000207323028,136.2317717,95.94726563,0.0000001896813292,10.72456998,0.7048215772,60.94486404,2.383787034,0.001102526597,2.375462976,0.000005432281354,0.01671091198,0.01671053959,0.1411457787,-0.1416485306,0.2827943093,1.610163332,0.01037839556,0.000279254579,0.005371630606,164.6827692,0.0000005671595645,95.703125,0.00002248457547,95.29663511,70.43457031,0.0000005671595645,10.31632754,0.890235585,113.6116414,6.313216682,0.001635203451,6.932354716,-0.00002130869907,0.0592318909,0.0592305717,0.5409265802,-0.3661360599,0.9070626401,1.856503921,0.0319050718,0.0035084169,0.01115891363,489.4126085,0.000006949641352,57.25097656,0.00008759196967,100.3639712,83.37402344,0.000006949641352,10.4608376,0.9360868009,155.5236518,78.5702917,0.005088208069,90.45296057,0.0000128417145,0.06189389301,0.06189251184,0.657354861,-0.626927361,1.284282222,1.863779891,0.03320879966,0.003830853992,0.01175667639,490.2876369,0.000007613268703,65.4296875,0.00008532429057,95.43855387,79.83398438,0.000007613268703,10.33451216,0.9538664215,169.9846452,85.78724477,0.005008937159,90.19401561,-0.000005324488576,0.08693136235,0.08692942076,0.7109646299,-0.9111115212,1.622076151,1.626289666,0.05345379988,0.00755706176,0.02461698725,647.6015331,0.00001463815939,44.31152344,0.0003123420972,75.73137839,60.66894531,0.00001463815939,9.846911217,0.9768424401,111.5884491,169.8915449,0.007800124841,182.6907177,-0.00002099067415,0.2117750489,0.2117703196,1.572638206,-1.433978825,3.006617031,2.016768653,0.1050071105,0.04484867133,0.03132648412,1332.480286,0.00008973463655,62.98828125,0.001369255497,87.91565231,80.32226563,0.00008973463655,10.06414869,0.9780660422,168.1865591,1004.423889,0.01521788286,1057.085234
9,0,-6.415991551,43.86569514,44.31955412,122.1800256,-125.5440096,247.7240352,1.238507527,35.4181902,1924.19921,40.748211,1.171875,2794.574019,1.354002461,1.171875,3.524812323,0.9975828269,10.40586939,-17.18849689,21.54825551,27.55896114,42.32579177,-95.8915036,138.2172954,0.980268525,21.98199265,464.3273155,15.46899421,0,775.1673508,1.327456937,0.9765625,3.877031945,0.9986767343,5.133554821,14.17369774,178.8596236,179.3674561,398.749275,-226.2118263,624.9611013,1.197167056,149.4023935,31990.76494,645.510167,1.171875,49090.65051,1.557887224,1.3671875,3.226990833,0.9983056521,8.998675672,1.212342976,0.3625219361,1.265353586,1.919138681,0.4836621634,1.435476518,0.2990258889,1.212342976,0.1314221541,0.03214290658,0,4.033196961,0.2815854704,0.1953125,1.74501073,0.9998593962,2.177320078,0.1488150797,0.476981353,0.4995219691,1.84195907,-0.6554950171,2.497454087,1.369192715,0.3483668499,0.2275112111,0.005432434464,1.171875,0.2292444572,1.551518213,1.3671875,4.005894882,0.9978449464,14.23811333,0.03115521924,0.1724535308,0.17519483,0.7348606382,-0.3575661023,1.09242674,1.431607106,0.120461494,0.02974022029,0.0006573948133,1.171875,0.03288455122,1.369340845,1.171875,3.677424234,0.9980667612,16.09107587,,0.000001637096417,0.01123936596,0.01123909771,0.09084819907,-0.09843512639,0.1892833255,1.406080472,0.007993401643,0.0001263233471,0.004921950721,141.0216369,0.00000024742765,95.82519531,0.00004705431182,129.9034818,95.94726563,0.00000024742765,10.44553953,0.7634958277,28.62620288,2.646837185,0.001292241685,2.866088923,0.0000005362045643,0.03008392189,0.03008320358,0.2466572561,-0.2643083257,0.5109655818,1.622652723,0.01853996327,0.0009050423563,0.009432875679,235.7726697,0.000001908527409,95.82519531,0.00007955191519,85.50676745,69.82421875,0.000001908527409,10.11659069,0.9555637066,98.1877632,18.99778117,0.002893659388,20.5342782,0.00001352309246,0.03314997897,0.03314919021,0.35460621,-0.1944016133,0.5490078233,1.652425565,0.02006140529,0.001098921106,0.009866367052,282.6666524,0.000002145269247,95.82519531,0.0000521980632,96.7550715,79.34570313,0.000002145269247,10.37401518,0.9359686587,130.5800333,23.02737323,0.003175042179,25.31686028,0.000001880612606,0.0908656079,0.09086343833,0.8047486847,-0.9093224294,1.714071114,1.930963412,0.047057136,0.0082565587,0.01673672853,718.2994903,0.00001618243718,95.82519531,0.0002048621549,110.5462998,92.28515625,0.00001618243718,10.64237076,0.8963788583,175.2614644,172.9029371,0.007300238407,178.6949032,-0.00001594663504,0.06772263811,0.06772102298,0.5537887895,-0.455383363,1.009172153,1.56902546,0.04316223021,0.004586355713,0.02203522654,524.7490709,0.000009410825201,52.61230469,0.0001993019054,79.42203456,60.66894531,0.000009410825201,9.970407378,0.9679663012,118.7518977,96.77099718,0.006570817271,98.96460035,0.00000369861254,0.1172842188,0.1172814184,1.26389939,-1.159289511,2.423188901,1.8735145,0.06260118018,0.01375558797,0.02612799514,885.0751445,0.00002805306604,62.86621094,0.0003024846777,107.0190767,94.84863281,0.00002805306604,10.45813973,0.9459931108,166.1410984,288.1011735,0.009464435749,300.2765278
10,0,-5.781192345,54.44522983,54.73788739,112.3253155,-218.117908,330.4432235,1.175863247,46.30234847,2964.283052,58.76774542,0.9765625,5689.003052,1.286470214,0.9765625,3.049113626,0.9992157423,6.070163008,-9.759853526,24.88897931,26.72843175,40.34871777,-73.42088461,113.7696024,1.109442714,22.43376697,619.4612911,14.70400933,0.9765625,1446.639799,1.179379836,0.9765625,3.131808571,0.9988961981,5.431386702,5.492429138,169.7156255,169.7624431,370.8135119,-209.1122761,579.925788,1.207719287,140.5257227,28803.39356,583.2037124,0.9765625,56378.15678,1.391150204,1.171875,2.593736681,0.9999202142,4.93385351,1.197251586,0.4556450494,1.280984344,2.198954384,0.2820334641,1.91692092,0.380575858,1.197251586,0.2076124111,0.03310000937,0,4.743951975,0.3225272842,0,1.748844251,0.9999485074,2.288234357,-0.1962581507,0.4242751768,0.4673729619,0.9716507539,-0.8238365263,1.79548728,1.027908753,0.4127556807,0.1800094257,0.004505640097,0.9765625,0.3486234693,1.248990475,0.9765625,3.224105533,0.9996435057,7.051622321,-0.1056478132,0.1187903425,0.1589516067,0.6019626375,-0.3633590628,0.9653217003,0.8900895578,0.1334588654,0.01411114546,0.0004988871754,0,0.03844362428,1.186204958,0.5859375,3.553493517,0.9993363636,4.519619002,,0.0000003822674001,0.01702388912,0.01702350552,0.1227867454,-0.1338536389,0.2566403843,1.478230098,0.01151640001,0.0002898128007,0.00656568702,178.5492841,0.0000005988135832,94.7265625,0.00004229468679,93.83151853,65.18554688,0.0000005988135832,10.27090376,0.8828535644,65.9674182,6.452510305,0.001837490757,6.641439612,0.00000085273141,0.02150446617,0.02150398163,0.1812333254,-0.2135783163,0.3948116417,1.551664819,0.01385896355,0.0004624420653,0.007593705254,189.1022084,0.0000009900163111,94.7265625,0.00004289855262,80.95592326,57.86132813,0.0000009900163111,10.03448091,0.927990544,87.5700176,10.28478164,0.002217791658,10.47764406,-0.000009643444427,0.0620283549,0.06202695797,0.6953061699,-0.7189489679,1.414255138,1.976905373,0.03137649163,0.003847516812,0.01261494178,390.2274155,0.000007959029934,50.53710938,0.0001081104455,83.41499142,68.72558594,0.000007959029934,10.16102873,0.9613609085,148.489841,85.37848837,0.004976471231,99.95362658,-0.000007956706293,0.0880335525,0.08803156921,0.7884655808,-0.8113665953,1.599832176,1.95752041,0.04497197171,0.007749906366,0.01477285122,762.7483381,0.00001779873788,122.4365234,0.0001422045798,115.5167573,100.4638672,0.00001779873788,10.6635009,0.8957528831,196.2049451,172.048576,0.006929426178,177.3160809,-0.0000227021954,0.1059918051,0.1059894192,1.123831255,-1.100327877,2.224159132,1.7702037,0.05987548498,0.01123426274,0.02418277796,828.6624868,0.0000242270216,60.91308594,0.0002945925297,94.26067774,86.18164063,0.0000242270216,10.22675872,0.9633942618,148.7089994,249.3419847,0.009231148725,264.3075487,-0.00002269389561,0.1279597059,0.1279568246,1.208978872,-1.358659747,2.567638619,2.099833966,0.06093801124,0.01637368632,0.02371758394,807.1826061,0.00003614957097,72.63183594,0.0004328024219,90.87047858,80.44433594,0.00003614957097,10.20926443,0.9726684694,166.8696298,364.0128816,0.009242155491,376.9986664
11,0,-11.72176791,46.00449909,47.46555143,102.4753363,-177.8629941,280.3383304,1.211440398,37.97504126,2116.413937,46.65634186,0.87890625,2737.917919,1.277204611,0.87890625,4.818153431,0.9983994112,15.28757691,-8.704399229,23.73742949,25.27864242,37.75568939,-141.7213259,179.4770152,1.453849631,16.3272934,563.4655588,11.75833924,0.09765625,752.6226448,1.054132163,0.78125,4.666090923,0.9997150566,14.20551756,3.599442799,152.8957719,152.9079713,370.38898,-217.4924097,587.8813897,1.267669619,120.6116875,23377.11708,477.8387876,0.78125,33788.35084,1.284380702,1.3671875,3.97741308,0.9996383171,11.89661011,1.05716433,0.2800616686,1.093617852,1.696033564,0.3424432718,1.353590293,0.2649178189,1.05716433,0.0784345382,0.0241950815,0.09765625,5.732329801,0.2038722127,0.09765625,1.951061869,0.9999814891,2.139404001,0.1432919911,0.2555865066,0.2929697559,1.029412344,-0.3915550122,1.420967356,1.335652376,0.191357056,0.06532446235,0.001764804613,0.09765625,0.1154479451,1.348075264,1.46484375,4.688424084,0.9988713703,8.250312878,-0.1244462716,0.1350765948,0.1836446586,0.5874154814,-0.4436028099,1.031018291,0.8731482201,0.1547006472,0.01824568646,0.000674133094,0.09765625,0.08114167155,0.7702418621,0.48828125,4.053673605,0.9996446488,4.351607875,,-0.000007494167496,0.02834305903,0.02834257723,0.3034758096,-0.2758039163,0.5792797259,1.719408327,0.01648419318,0.0008033289949,0.007857600324,306.2408483,0.000001616600224,39.30664063,0.00003810154354,82.41860057,61.27929688,0.000001616600224,10.13066822,0.9449873775,140.5652301,24.87522528,0.002551479003,24.79852788,0.000003372247856,0.01707780835,0.01707751778,0.2297715496,-0.1748589274,0.404630477,1.599069709,0.01067983982,0.0002916515379,0.00580135372,220.2690186,0.0000006235541363,92.65136719,0.00002287176441,94.43175532,73.48632813,0.0000006235541363,10.35623838,0.9065343667,141.8118626,8.578631937,0.001679434857,8.848556201,-0.00001653929484,0.07515674252,0.07515546415,1.174068992,-1.063836294,2.237905286,2.016451322,0.03727178618,0.005648535946,0.01613992796,636.7407812,0.00001324126555,31.98242188,0.0003387089745,88.27877253,66.65039063,0.00001324126555,10.27965728,0.9256450846,167.7877723,165.8538813,0.005738927568,187.2572289,0.00001716613796,0.1747103037,0.1747073286,1.355518426,-1.225514565,2.581032991,2.026358799,0.08621883936,0.03052369023,0.0247822419,1711.385805,0.00006336845127,79.95605469,0.0006951340883,103.3673608,89.72167969,0.00006336845127,10.50388695,0.9208133689,180.2995579,896.2966293,0.0133295155,988.4395124,0.00001676784361,0.1297360849,0.1297338761,1.159181282,-1.274540709,2.433721991,1.742383337,0.07445897936,0.01683145173,0.03166867741,1104.67024,0.00003143394671,57.25097656,0.0007968365678,74.38043957,64.20898438,0.00003143394671,9.808086741,0.9847402445,137.3692971,494.9767229,0.01086956351,536.7581068,-0.00001016119399,0.06741878952,0.0674176419,0.5995684772,-0.6151335505,1.214702028,1.61715301,0.04168980245,0.00454529318,0.02103080639,704.3419444,0.000009748451679,57.25097656,0.0001444030419,90.22392726,79.22363281,0.000009748451679,10.22862928,0.9641845626,163.0363408,134.0675932,0.005992323059,140.0777375
12,0,-7.12319612,66.99007777,67.35235355,129.9948874,-150.6815601,280.6764475,1.213230865,55.21626569,4487.67052,90.48900703,0.9765625,9376.290695,1.190528216,0.9765625,2.557556388,0.9998963429,4.622305589,-18.94164284,23.95939898,30.53807012,25.60408786,-98.28723791,123.8913258,1.006501508,23.80463297,574.0527996,18.95328986,0.9765625,1376.812888,0.711753865,0.78125,2.813481292,0.9999196135,5.132284013,0.6964680799,162.4590599,162.423064,343.8051471,-207.5315214,551.3366685,1.189909416,136.5306113,26392.94614,526.0297731,0.9765625,55343.08097,1.251495173,0.9765625,2.270496753,0.9999614292,4.518653049,1.118984581,0.3473094672,1.171620542,1.76666923,0.3259359276,1.440733303,0.3103791359,1.118984581,0.120623866,0.02734544844,0,4.412548893,0.2388502459,0,1.456488488,0.9999752338,2.191472833,0.1350076833,0.4301224064,0.4507182991,1.324254322,-0.3352940519,1.659548374,1.518406389,0.283272258,0.1850052845,0.004037055591,1.7578125,0.2329475499,1.516700038,1.7578125,3.125831762,0.9996947124,7.056705025,-0.1110993589,0.1140300396,0.159185166,0.2248441195,-0.3541222717,0.5789663912,0.8620779288,0.1322734706,0.01300284993,0.0005151220538,0,0.04347424477,0.8504223334,0.5859375,3.172157818,0.9995419595,4.102045739,,-0.0000009213997443,0.02811021433,0.02810962825,0.2679669791,-0.2406175101,0.5085844893,1.676433518,0.01676786704,0.0007901841497,0.008307285655,262.833839,0.000001539097573,39.42871094,0.0000278067278,86.65097766,66.77246094,0.000001539097573,10.19902573,0.93423393,130.9091742,18.95718633,0.002625680248,18.89327856,0.000004016825709,0.02279085573,0.02279038089,0.2385334784,-0.2550513444,0.4935848228,1.670277979,0.01364494774,0.0005194231047,0.00711467258,217.2487291,0.000001178147758,33.44726563,0.00002910096972,84.14593766,66.89453125,0.000001178147758,10.1299137,0.9370249632,139.8986888,12.46479795,0.002144650559,13.71410212,-0.000002210346362,0.07344896235,0.07344743097,1.440091905,-1.134251896,2.5743438,1.803279145,0.0407307779,0.00539475007,0.01883736788,581.439759,0.00001299631945,36.49902344,0.0002924077517,93.21042237,71.53320313,0.00001299631945,10.27606436,0.9254266788,140.4001004,129.4597072,0.00624870293,146.7128779,-0.00001810538721,0.1557017729,0.1556985276,1.303594606,-1.1889299,2.492524506,1.979870263,0.078642412,0.02424304209,0.0233024718,1361.602395,0.00004823464732,42.11425781,0.0005596367495,109.9883028,92.65136719,0.00004823464732,10.63362427,0.8898039403,167.8547303,581.8951316,0.01245498206,624.7988261,-0.00003208117331,0.1330902553,0.1330874842,0.9561075261,-1.131440345,2.087547871,1.643766195,0.080966658,0.01771301606,0.0356655716,1038.726247,0.00003843243292,67.87109375,0.0008167911562,78.26980081,67.50488281,0.00003843243292,9.904064581,0.9804437782,132.7672793,425.3177545,0.01187838436,461.5504855,0.00001009857569,0.06384586475,0.06384453436,0.6708240463,-0.586581061,1.257405107,1.585205037,0.04027609254,0.004076294445,0.02146874466,587.7461907,0.000008302573496,79.46777344,0.0001318574517,95.24673601,80.68847656,0.000008302573496,10.30414958,0.9445130345,146.1216506,98.02516684,0.00596223077,103.1848213
13,0,-3.92882013,36.95137039,37.15227727,83.46604628,-132.0441088,215.5101551,1.149554067,32.14409088,1365.403774,28.83227577,0.78125,2356.929783,1.423785871,0.87890625,4.415925564,0.9997072285,8.91361864,-3.766842368,45.58657278,45.73282334,111.405395,-88.96763286,200.3730278,1.193388151,38.19928388,2078.135617,42.07276824,0.78125,3518.899711,1.188284243,0.9765625,3.802787024,0.9998285285,7.267463389,0.6267066392,158.4341784,158.4036391,362.8896324,-205.9680931,568.8577255,1.229076316,128.905078,25101.38887,505.823002,0.78125,47088.7955,1.231769185,1.171875,3.526627642,0.9999614782,6.629962434,1.060106958,0.3187039329,1.106958995,1.626525896,0.2817577206,1.344768176,0.3006337526,1.060106958,0.1015721969,0.02446773775,0.09765625,5.692599404,0.2239333376,0.09765625,2.014278379,0.9999733231,2.179735465,0.08901048931,0.2085528857,0.2267150784,0.7484622981,-0.150535757,0.8989980551,1.500332552,0.1390044397,0.04349430615,0.001012241658,0.78125,0.06726190915,1.22596477,0.9765625,4.317425215,0.9993680247,9.749759522,-0.1752286835,0.07033932491,0.1888140025,0.2177207871,-0.3957424773,0.6134632644,0.3922607659,0.1793177677,0.004947620629,0.0007096130017,0.09765625,0.1553736996,0.3686002163,0.09765625,2.525517073,0.9985526856,2.321056857,,0.0000008496999467,0.01524394303,0.01524364793,0.1409080023,-0.1143684565,0.2552764588,1.516768209,0.01005027857,0.000232377799,0.005477039536,232.6098157,0.0000004548343524,99.85351563,0.000006766113389,132.2158335,105.1025391,0.0000004548343524,10.98772488,0.7812841044,189.6262458,6.014719729,0.001574911121,6.289859163,0.0000006417720793,0.01521064149,0.01521034703,0.09621999439,-0.1308933476,0.227113342,1.486360462,0.01023348096,0.0002313636146,0.005751299496,209.3898183,0.000000469353008,153.6865234,0.000007511256465,113.0397168,87.03613281,0.000000469353008,10.64664462,0.8478838764,157.6363564,5.98985672,0.001558284241,6.377365152,-0.00001030430257,0.02143464806,0.02143423557,0.4159604755,-0.185822953,0.6017834285,1.80921772,0.01184746746,0.0004594441375,0.00603936314,245.6822113,0.0000009530624746,62.74414063,0.00001250081055,111.3789724,84.35058594,0.0000009530624746,10.65603058,0.8617512226,183.7299742,12.02810008,0.00189176158,12.87494578,-0.00001123664799,0.1162321319,0.1162298822,1.234590609,-0.9742967285,2.208887338,1.947837085,0.05967240935,0.01350990848,0.01820405899,1243.363553,0.00002593217127,89.23339844,0.0002579454242,122.7348834,103.1494141,0.00002593217127,10.77803014,0.8507295968,207.9333665,348.9331508,0.009018817415,368.0522077,0.00001189692194,0.07009842963,0.07009707355,0.646576921,-0.8881534468,1.534730368,1.819346277,0.03852946002,0.004913789837,0.01631008337,562.5811293,0.000009434608374,38.20800781,0.000159510032,77.09057763,66.89453125,0.000009434608374,9.917056243,0.976880107,129.3979191,127.6956346,0.005605168277,129.999422,-0.000004397080077,0.1033204133,0.1033184132,1.010409974,-1.011759418,2.022169392,1.754387487,0.05889258449,0.01067510781,0.0261142594,1251.711602,0.00002204924689,134.8876953,0.0002068211048,134.0589352,121.4599609,0.00002204924689,10.84436241,0.8599462715,205.5632082,275.7623696,0.008888425354,290.1354938
14,0,-2.62133545,49.52511273,49.58319584,125.9881654,-115.1069715,241.0951369,1.216451236,40.71278096,2452.736791,50.67298864,0.9765625,5312.47034,1.09163118,0.9765625,2.652789756,0.9990951182,4.918389912,-14.87094983,14.62164599,20.8528296,23.50009232,-83.49504215,106.9951345,0.8009401683,18.25560332,213.7925316,9.086243055,0,798.3902212,0.6996493336,0.1953125,3.096700975,0.9998095389,3.929113526,3.977671545,147.1251673,147.1454985,335.991406,-203.7056266,539.6970326,1.238568665,118.7864439,21645.81486,433.7161841,0.9765625,33781.20561,1.341883299,0.9765625,2.672169168,0.9999180051,6.221025289,1.05179325,0.3014182269,1.094111827,1.61186401,0.3125440506,1.299319959,0.286575548,1.05179325,0.09085294748,0.02381767124,0,3.94903806,0.2071220929,0,1.427779353,0.9999446641,2.163112485,0.2046652247,0.3091399063,0.3706911061,1.073944321,-0.2272903614,1.301234682,1.264585283,0.2444595161,0.09556748169,0.002714179684,0,0.1453800183,1.044009516,0.9765625,3.297336006,0.9999061998,6.548525725,-0.02420108476,0.09606908073,0.09904930921,0.5285927389,-0.228290635,0.7568833739,1.379808006,0.06962496256,0.009229268273,0.0002085771329,0.78125,0.0081186117,1.499174111,1.171875,4.032836833,0.9996291158,19.62569488,,0.000001982366268,0.0152161849,0.01521585124,0.1266295726,-0.1546208707,0.2812504433,1.449387304,0.01049835669,0.000231532283,0.006179946474,191.7882493,0.0000004664141223,98.51074219,0.00001617981697,117.0211022,91.55273438,0.0000004664141223,10.70766962,0.8301003592,127.2836746,5.285500529,0.001663735692,5.618082435,-0.0000116848426,0.02209177303,0.0220912915,0.1739829139,-0.1541467838,0.3281296977,1.567619542,0.01409256037,0.0004880464355,0.007298962801,215.3653468,0.0000009968582619,98.51074219,0.0000192590525,90.65606819,69.21386719,0.0000009968582619,10.25150148,0.9191775215,127.5231403,11.12527063,0.002180010038,12.05038905,-0.000005246504646,0.1384491065,0.1384460694,1.46679019,-1.248457988,2.715248177,2.076492273,0.06667451078,0.01916815508,0.02079109957,962.5013171,0.0000402551361,33.93554688,0.0008564174751,91.84099669,66.89453125,0.0000402551361,10.30681388,0.903460754,142.8814907,437.7403901,0.01107176286,623.8278721,0.000002236818955,0.09248632623,0.0924842974,0.8725867349,-0.8326628403,1.705249575,1.958443712,0.04722439848,0.00855372054,0.01480226708,826.7103487,0.00001688320762,76.53808594,0.0001937111756,117.2581069,100.2197266,0.00001688320762,10.68641758,0.8705867887,189.3017018,194.9890738,0.007148746347,203.2414198,0.000002314842902,0.08597322771,0.08597134177,0.7102208412,-0.9314230926,1.641643934,1.710240022,0.05026968532,0.007391395884,0.02350842719,673.1509432,0.00001548583685,64.69726563,0.0002522608456,85.37088032,70.55664063,0.00001548583685,10.0931266,0.9639118561,132.2029542,168.580305,0.007573223271,175.68998,0.00002068019263,0.1233664986,0.1233637941,1.119877175,-1.244412259,2.364289435,2.089337809,0.05904574073,0.01521929297,0.0213210447,809.5887302,0.00003204544361,57.37304688,0.0004343591994,91.746378,77.39257813,0.00003204544361,10.19743219,0.953536263,141.6127111,346.9478878,0.009415718255,373.4111011
15,0,-0.2901577455,55.6096807,55.59721477,146.3308961,-92.93179254,239.2626886,1.229278996,45.23764,3092.436587,59.43968457,0.9765625,6383.879517,1.340643192,0.9765625,2.774035048,0.9993902841,4.817708146,-15.32610927,72.76846195,74.34797058,87.99041561,-168.3928507,256.3832664,1.260341006,57.73712163,5295.249054,110.200721,0.9765625,12195.11718,1.17883447,0.9765625,2.503247872,0.9999626163,4.678994374,-5.390420806,145.1013868,145.1669986,315.3914483,-189.1338961,504.5253444,1.189908321,121.9433332,21054.41245,420.0382676,0.9765625,36112.32935,1.420404472,1.171875,2.534392871,0.9999743969,5.243374404,1.148339999,0.4187527226,1.222274606,1.961674247,0.2611813541,1.700492893,0.3646591802,1.148339999,0.1753538427,0.02968668276,0,4.493921311,0.2987679623,0,1.630103822,0.9999717127,2.2646062,0.07778421726,0.3638661407,0.3720026825,1.122329807,-0.3255041469,1.447833954,1.43616265,0.2533599804,0.1323985684,0.002698734238,0.9765625,0.2371799996,1.462284061,0.9765625,3.1111747,0.9998691272,5.966116253,-0.07833274416,0.1828207404,0.1988555977,0.4368283404,-0.4470716967,0.8839000371,1.083568319,0.1687210093,0.03342342312,0.0008107619613,0.9765625,0.06248961497,1.194157561,0.9765625,3.132453811,0.9999347595,7.142227119,,0.000001076557056,0.01354417718,0.01354385107,0.1217763169,-0.125676026,0.2474523429,1.463680707,0.009253505299,0.0001834447354,0.005405389254,159.6541845,0.0000003718781646,151.4892578,0.00000510441817,120.2720701,90.8203125,0.0000003718781646,10.87802171,0.7881196515,156.1577306,3.809825884,0.001520180456,4.212772342,0.000005684186814,0.02015314256,0.02015265806,0.1670510763,-0.1724515739,0.3395026502,1.631703006,0.01235098697,0.0004061491549,0.006178329582,186.5034166,0.0000008191350179,37.23144531,0.00001196678354,96.48219066,73.60839844,0.0000008191350179,10.50676688,0.8904647789,136.0252293,8.441184852,0.002001018938,8.850007344,0.00003239364758,0.189885955,0.1898813852,1.860492623,-1.639138981,3.499631604,2.152686836,0.08820881505,0.03605667591,0.02870797833,1008.319602,0.00007366434602,36.25488281,0.001832922003,86.17707177,60.30273438,0.00007366434602,10.17201954,0.9115064994,132.2139114,748.6967162,0.01444770251,1022.34144,0.000007506665963,0.03900824665,0.03900730804,0.468284537,-0.374683752,0.842968289,1.700083695,0.02294489781,0.001521643307,0.01034861946,373.2318145,0.000003123514063,78.85742188,0.00003293282061,116.4393934,96.92382813,0.000003123514063,10.74313984,0.8854031014,170.7525157,31.60563303,0.003535047896,32.61540426,0.000008959754725,0.07338804197,0.0733862753,0.6219218381,-0.4924180891,1.114339927,1.565349401,0.04688285052,0.005385804704,0.02320691039,548.3565779,0.0000107604709,42.60253906,0.0001768397315,79.21622106,66.40625,0.0000107604709,9.966763899,0.9761260222,119.3663464,112.1216639,0.007008434488,120.236297,0.00000130253262,0.07679323194,0.07679138274,0.5837311711,-0.6522973423,1.236028513,1.664822677,0.04612697377,0.005897200472,0.02193391514,719.3020798,0.00001169979154,77.27050781,0.000125915194,114.1006761,97.77832031,0.00001169979154,10.63133229,0.9050599691,155.8377562,122.5010617,0.006995634817,122.9827699
1,1,12.85504923,48.04215902,49.72593708,192.91,-74.47014647,267.3801465,1.61711668,29.70852977,2308.049043,57.9818366,0.09765625,7267.866718,0.5670940953,0.1953125,3.793913022,0.9982858578,23.18376219,-0.101833292,21.87073999,21.86798008,70.15053376,-57.4218684,127.5724022,1.337095978,16.35689611,478.3292678,9.536050327,0.5859375,951.2281608,0.9878698742,0.9765625,4.049646238,0.9998827864,14.55218617,3.541729396,82.07055678,82.13570641,233.388584,-124.6953586,358.0839426,1.304387006,62.91887024,6735.57629,135.1677613,0.5859375,13361.03106,0.9898481187,0.9765625,3.76212338,0.9999484646,15.02452338,0.9773136302,0.1731628548,0.9925316562,1.437179502,0.3780566801,1.059122822,0.1771824821,0.9773136302,0.02998537428,0.01962482424,0,5.664139296,0.08305273403,0,1.338433733,0.999986253,2.062187183,0.308411353,0.1816160429,0.3579006991,0.9646859082,-0.2531665935,1.217852502,0.5755433937,0.3155557772,0.03298438704,0.002583763951,0,0.5726221437,0.3931560041,0.09765625,2.755234156,0.9998629712,2.692366183,0.175000626,0.07743104575,0.1913612888,0.3783119286,-0.07661321327,0.4549251419,0.4391187825,0.176332803,0.005995566846,0.0007249115724,0,0.1836322435,0.1849792795,0.09765625,2.052671587,0.9999062633,2.390653741,,-0.0000001915451466,0.01127296831,0.01127281468,0.1337212343,-0.1164464678,0.2501677021,1.401153907,0.008045488978,0.0001270798146,0.004859637849,279.6266313,0.0000002621444988,99.48730469,0.00001202343828,148.5536885,118.1640625,0.0000002621444988,11.1304883,0.6716237727,157.6843575,4.664277054,0.001220556894,5.126478583,0.000004921085364,0.04134034926,0.04133978613,0.3141660139,-0.3433246271,0.657490641,1.587903248,0.02603455173,0.001709024477,0.01266745319,642.0730477,0.000003427587992,153.0761719,0.0001144672548,95.40836485,78.73535156,0.000003427587992,10.34007385,0.9328578221,155.0997118,62.70406347,0.003778023737,67.74120224,-0.0000001821052638,0.00568018126,0.005680103848,0.1041345537,-0.1180049967,0.2221395504,1.725417079,0.003292062731,0.00003226445915,0.001868559026,142.2404479,0.00000006377017759,99.48730469,0.00001100684067,198.6621117,182.1289063,0.00000006377017759,11.2087374,0.3574457806,57.68813307,1.184514734,0.0005494296898,1.363815729,0.000002522623485,0.03817752587,0.03817700564,0.3056799154,-0.3755077921,0.6811877076,1.767809207,0.02159595375,0.001457523482,0.008840026459,635.8345391,0.000003124698239,68.84765625,0.00003664779735,118.0534026,99.609375,0.000003124698239,10.66692766,0.8720392449,235.8403992,53.49175382,0.003156919378,54.84450343,-0.00000007773928527,0.004869758607,0.004869692238,0.0928012073,-0.09515410778,0.1879553151,1.675450404,0.00290653701,0.00002371454889,0.001676076032,123.1412096,0.00000004756541326,99.48730469,0.000009808258707,195.2879665,176.5136719,0.00000004756541326,11.08288418,0.3810859461,48.77804015,0.8704262744,0.000477880177,0.994155708,-0.000000438705591,0.005166301605,0.005166231213,0.07886585505,-0.09859612709,0.1774619821,1.677553238,0.003079664769,0.00002669067228,0.001764537499,131.2292878,0.00000005444971945,99.48730469,0.00001062482658,196.6200823,176.3916016,0.00000005444971945,11.13397481,0.3753330644,52.72971801,0.9793187931,0.0005078881195,1.13842293
2,1,-2.708642244,23.3439518,23.49772194,59.56023308,-80.21561998,139.7758531,1.492522017,15.640608,544.9400855,11.03666688,1.46484375,951.8914788,1.399722591,1.3671875,4.411555105,0.9988057837,15.37074673,-1.179836359,15.04786068,15.09219961,38.32334409,-35.21004837,73.53339246,1.193524965,12.60791448,226.438111,4.559774461,0.48828125,656.2403515,1.073756403,0.9765625,3.798465208,0.9999454361,7.403174704,0.3395741108,74.84276255,74.83433798,203.2078698,-111.8277557,315.0356255,1.353512931,55.29519579,5601.439106,110.7152299,0.9765625,13312.45122,0.9673242534,0.9765625,3.347198119,0.9999934473,7.873847913,0.9442875386,0.1374908915,0.9542421371,1.279092822,0.5249089232,0.7541838986,0.1456027808,0.9442875386,0.01890374525,0.01818690327,0,5.911749386,0.06533583891,0,1.157888542,0.9999860674,2.041877599,-0.06956623003,0.1719213127,0.1854430801,0.3033567474,-0.4858836671,0.7892404145,1.118626001,0.1536897162,0.02955693775,0.0006873951182,0.48828125,0.1378733408,0.7371860497,0.48828125,3.31748602,0.9999223821,5.334606926,-0.09260943662,0.08548540133,0.1260256564,0.1754006248,-0.2125768245,0.3879774493,0.7675433553,0.1113753389,0.00730775384,0.0003200745687,0,0.05708688479,0.5906765499,0.09765625,3.373748031,0.9999178995,3.701659689,,0.000003508660082,0.01375898148,0.01375882534,0.1175905717,-0.1170838727,0.2346744444,1.478085114,0.009308653037,0.0001893095715,0.005253522012,330.7834524,0.000000387558104,98.08349609,0.00002258533866,114.5576989,88.25683594,0.000000387558104,11.63415907,0.8245928491,158.2750266,8.365029198,0.001356352916,8.95781823,0.0000005206266977,0.01623542127,0.01623523651,0.154351163,-0.1520597332,0.3064108962,1.537767745,0.01055778503,0.0002635889039,0.005538854419,381.9227144,0.0000005074437762,98.08349609,0.00002625047783,119.6660481,98.02246094,0.0000005074437762,11.70481032,0.8394691927,176.9511477,11.58887556,0.001530870776,12.34883478,0.000005932252789,0.03708423813,0.03708381656,0.4652903863,-0.3327188155,0.7980092017,1.599694464,0.02318207568,0.001375240718,0.0117996318,808.5765364,0.000002940600729,150.8789063,0.0002005228741,113.948681,91.06445313,0.000002940600729,11.37506964,0.8726448836,152.8278491,60.53779398,0.003484739912,67.99481748,-0.00001014475288,0.02758606923,0.02758575715,0.2379007014,-0.2074816843,0.4453823857,1.568574302,0.01758671501,0.0007609912157,0.008402857335,652.1123452,0.000001544026621,98.08349609,0.00004970983001,126.1197355,108.5205078,0.000001544026621,11.82266225,0.8661628032,218.5955539,33.54106153,0.00253929964,34.92599123,-0.0000009911860203,0.01293559496,0.01293544778,0.1059514097,-0.1441130443,0.2500644541,1.431463131,0.009036624611,0.0001673296169,0.005319842915,345.5566177,0.0000003319103496,98.08349609,0.00002644732422,126.2223762,98.08349609,0.0000003319103496,11.79536952,0.7835263698,127.2082474,7.354499801,0.001323668209,7.835515625,0.0000002675099601,0.02975008636,0.02974974778,0.3533275764,-0.2499041655,0.6032317419,1.729605496,0.01720050407,0.0008850676384,0.007567325923,626.3169101,0.000001541662796,98.08349609,0.000023486246,125.1829761,110.9619141,0.000001541662796,11.71530961,0.8925306737,235.1676908,38.92368618,0.002547073245,40.44732319
3,1,8.191683687,35.16806288,36.10230834,140.6353164,-65.95205066,206.587367,1.479358781,23.77250423,1236.792647,26.52484151,1.66015625,1720.260824,1.354911001,1.5625,4.387270665,0.9999688168,10.94370258,1.184398169,16.22372287,16.26349872,43.50295397,-49.18908814,92.69204211,1.312914138,12.35703265,263.2091838,5.306500395,0.78125,421.2574019,1.210697533,0.9765625,4.268235799,0.9999571428,9.350053504,-2.521258449,79.89094835,79.9139451,208.6942424,-162.7820745,371.4763169,1.353564007,59.02266013,6382.563627,125.4479988,0.87890625,10025.68825,1.419486883,1.46484375,3.949018373,0.9999681545,7.564479305,0.9308295052,0.3295437264,0.9874193666,1.581663479,0.02923430937,1.552429169,0.354032317,0.9308295052,0.1085990676,0.01944274083,0.09765625,4.362437138,0.3087296565,0.09765625,2.268013927,0.999975404,2.249508847,0.04900719958,0.2578225543,0.2623856808,0.9653678338,-0.262368295,1.227736129,1.53694206,0.1677503407,0.06647246951,0.001356653802,0.87890625,0.08956109856,1.558817294,1.5625,4.453170675,0.9998571688,9.344765682,-0.2204299506,0.08958448435,0.2379314417,0.1467289199,-0.507302129,0.654031049,0.3978069277,0.225195888,0.008025379836,0.001122640829,0.09765625,0.2440711414,0.308232719,0.09765625,2.501385459,0.9999702625,2.329055888,,0.0000001622168127,0.005787918586,0.005787807041,0.1031345694,-0.1147652232,0.2178997926,1.552273814,0.003728671149,0.00003350000156,0.002269730072,104.6572048,0.0000000699285058,95.09277344,0.00001313720517,186.1535114,163.2080078,0.0000000699285058,10.82565799,0.43955125,32.24391946,0.870047074,0.0006111320082,1.010014756,-0.00001200521198,0.08221428354,0.08221269995,0.8581322834,-0.7952597866,1.65339207,1.6738658,0.04911641278,0.006759188418,0.0237659781,601.8765109,0.00001514401699,31.86035156,0.0002767427376,72.32732793,64.81933594,0.00001514401699,9.73862726,0.9872462723,128.9902162,175.4266992,0.007691574975,195.4281089,-0.00004625232858,0.1183215072,0.1183192358,1.290854542,-0.9644945728,2.255349115,1.788282145,0.0661648988,0.01399997905,0.03110969169,782.4690218,0.00003087819552,34.05761719,0.0008617078992,67.5759991,60.05859375,0.00003087819552,9.580687987,0.9862959669,119.3966664,363.2529082,0.01003388037,417.158888,0.000001622297278,0.151853512,0.1518505854,1.250501213,-1.155268923,2.405770135,2.127438757,0.07137855862,0.02305948912,0.02438853117,898.5625987,0.00004880041055,31.73828125,0.0009941952667,71.14964026,62.98828125,0.00004880041055,9.724341943,0.9839707007,128.5431535,598.4601407,0.01197800174,701.5282632,-0.00002365590455,0.1626143501,0.1626112179,1.944700492,-1.739898918,3.68459941,1.883013944,0.08635854801,0.02644342686,0.03586679822,1345.870972,0.00005293922675,37.96386719,0.0009788327462,95.02332859,77.51464844,0.00005293922675,10.42901332,0.9310296594,158.2265122,686.4018992,0.01345514229,761.4052579,0.00002884211762,0.1608592817,0.1608561842,1.135027209,-1.282517538,2.417544748,1.664919257,0.09661686661,0.02587570852,0.04600378948,1438.138319,0.00004919879767,33.32519531,0.001614999383,76.20940752,55.54199219,0.00004919879767,9.916697161,0.9675057597,136.2078517,677.1463511,0.01497918223,769.9026637
4,1,-1.116715297,32.01871864,32.03371581,120.0979123,-99.96182092,220.0597332,1.363350052,23.48532469,1025.198343,20.14400499,0.5859375,2233.080996,1.057660618,0.78125,4.052672164,0.9998948685,8.076736555,-4.536565767,23.66301343,24.09070739,51.82012092,-71.58690726,123.4070282,1.254740368,18.85889228,559.9382046,11.59791628,0.5859375,955.4858792,1.189081796,1.171875,4.064171456,0.9999717908,9.886432286,0.1768229478,72.51609303,72.50617716,243.5937074,-114.8882271,358.4819345,1.510625383,48.00402128,5258.583749,107.6932596,1.66015625,8002.349478,1.493941286,1.5625,4.140421678,0.9999679892,12.08068838,0.9455248425,0.2596185629,0.98051017,1.616659205,0.1654974103,1.451161794,0.2745761415,0.9455248425,0.06740179823,0.01927136285,0,5.225845497,0.1832630734,0,1.656562751,0.9999759623,2.150095952,-0.03519453357,0.1466427641,0.1507870917,0.5785857809,-0.3094845659,0.8880703467,1.274479967,0.1150608623,0.02150410025,0.0004869251153,1.171875,0.02630276659,1.797167954,1.66015625,4.974205113,0.999210647,16.35639196,-0.2063412446,0.06851872168,0.2174171398,0.01478916833,-0.3446804058,0.3594695741,0.3319926152,0.2063862826,0.004694815221,0.0009484507666,0,0.2518372634,0.1577531365,0,1.763267845,0.9999280536,2.219784218,,-0.000001492940597,0.01480004361,0.01479983968,0.1824274527,-0.1067336751,0.2891611278,1.436599756,0.01030213429,0.0002190412908,0.005996728883,309.6306362,0.0000004359129048,97.16796875,0.0000230330938,123.7928914,102.6611328,0.0000004359129048,10.78853463,0.8447570979,147.470195,7.946934543,0.001537882476,8.378545437,-0.00002331482661,0.04247573281,0.04247515372,0.3323212098,-0.2834416579,0.6157628677,1.433426389,0.02963230838,0.001804187878,0.01620842951,613.1226502,0.000003561110714,66.65039063,0.0000596588105,83.3989043,70.3125,0.000003561110714,10.0844802,0.9711567309,159.8472825,65.56219981,0.004134707281,71.67582742,0.000002402872797,0.02825326673,0.02825287738,0.3122366784,-0.2058317531,0.5180684315,1.485363038,0.01902111874,0.0007982470808,0.01027706899,444.7087129,0.000001520010555,56.51855469,0.00003199833742,90.67201631,72.99804688,0.000001520010555,10.24704721,0.9389463638,169.985658,28.96644213,0.002741688942,30.89130471,-0.000001287278072,0.04564452991,0.04564390076,0.2560028417,-0.6281763482,0.88417919,1.612069838,0.02831423853,0.002083423111,0.01432423655,707.7227271,0.000004165175721,97.16796875,0.00005003729802,100.8179263,88.13476563,0.000004165175721,10.4360346,0.9516622241,184.4102132,75.82274144,0.004292398278,79.82721422,-0.000003551323535,0.09597712626,0.09597580337,0.836750574,-1.130394973,1.967145547,1.741477718,0.05511246298,0.009211608764,0.02462383583,1122.710327,0.00001864711959,63.4765625,0.0004071269949,80.25471226,69.70214844,0.00001864711959,9.875148015,0.9792300299,156.3222628,334.1724543,0.00784933567,355.3547464,-0.00003071735015,0.09404991449,0.09404862311,1.088611037,-1.253107559,2.341718596,1.639742169,0.05735652608,0.008845386415,0.02960594758,1341.540251,0.00001764323456,78.36914063,0.0003059063064,99.14033318,87.03613281,0.00001764323456,10.40286459,0.9609694849,190.4176351,321.8786622,0.008478796535,342.6923563
5,1,1.250329505,29.7226986,29.74422451,85.72092218,-94.23449079,179.955413,1.405101999,21.15340994,883.4388121,17.50237388,0.68359375,1865.398066,1.35694887,0.78125,4.318956437,0.999964545,10.1422075,1.436658676,18.1618852,18.2157159,32.21164945,-41.79196986,74.00361931,1.163709454,15.60688979,329.8540739,6.569581221,0.68359375,1125.961874,0.7655928882,0.68359375,2.873938659,0.9999528794,5.466666615,1.06608089,45.11777412,45.1231362,113.2048986,-88.34386232,201.548761,1.240917327,36.35840449,2035.613541,40.35919131,0.68359375,5445.656636,0.9901936859,0.68359375,3.545889533,0.9999838044,7.036993818,0.8992180547,0.1102537863,0.9059498386,1.173831558,0.6084391269,0.5653924312,0.1226107346,0.8992180547,0.01215589739,0.01641413202,0,4.109526906,0.07699249558,0.09765625,1.339684614,0.9999861774,2.02939671,-0.2466448097,0.2130979567,0.3259291978,0.48157024,-0.7293019094,1.210872149,0.7405377684,0.2877610918,0.04541073917,0.002082796324,0,0.3116667341,0.5643179916,0.09765625,3.42243354,0.99998294,3.490514841,-0.09128385442,0.09881743776,0.1345157883,0.2363043136,-0.3153402889,0.5516446025,0.9040733076,0.1093024613,0.009764886006,0.0003599748671,0,0.04248157867,0.8046754496,0.48828125,4.027695461,0.9999111705,4.339965944,,-0.000001692691526,0.009570809151,0.009570656436,0.08127453709,-0.08732319232,0.1685977294,1.321712659,0.00724121774,0.00009160038781,0.004648481382,206.5732785,0.0000001827080837,99.36523438,0.00003013770375,142.5544688,107.9101563,0.0000001827080837,10.7692001,0.7089936374,55.70449434,2.870236336,0.001086335787,3.063588507,0.00000176435783,0.01402401933,0.01402379545,0.1056199928,-0.1308964035,0.2365163963,1.517928415,0.009238920091,0.0001966731183,0.005085993568,238.169674,0.0000003915500888,99.36523438,0.0000241141414,116.7058926,89.84375,0.0000003915500888,10.65896045,0.8259346859,125.9211415,6.15904507,0.001389619436,6.443076396,-0.00007196608987,0.08838552324,0.08838414084,1.191702507,-1.061473771,2.253176279,2.239905504,0.03945948751,0.007812000718,0.01458268185,905.0561408,0.00001549476874,76.41601563,0.0006000165271,83.59907434,58.10546875,0.00001549476874,9.894575651,0.907149299,142.7534165,244.8191367,0.006397085559,289.2236587,-0.000002711714838,0.01568046737,0.01568021716,0.2354612614,-0.2076907696,0.443152031,1.574356946,0.009959918819,0.0002458770569,0.005630551127,263.4606423,0.0000004749893223,99.36523438,0.00003150217676,120.8482852,99.48730469,0.0000004749893223,10.73246326,0.8425200864,122.2141662,7.703169769,0.001518596018,8.277487788,-0.0000116943827,0.02917316166,0.02917269805,0.2754333943,-0.2605456089,0.5359790032,1.470844797,0.0198342896,0.0008510733614,0.01102857583,353.694676,0.00000162556531,40.64941406,0.0000329300691,76.33117098,58.83789063,0.00000162556531,9.816786049,0.9469832638,124.5260357,26.65573522,0.002900903045,26.77986666,0.000003080431475,0.03268709234,0.03268657041,0.3978689005,-0.4365500608,0.8344189612,1.843740752,0.01772868138,0.001068446006,0.008023162685,384.7019916,0.000002058270486,99.36523438,0.00003018253189,92.28040741,78.61328125,0.000002058270486,10.27120305,0.9488255102,165.2933197,33.49221136,0.002684499175,33.17255129
6,1,-3.099591543,29.6031253,29.76030551,72.07405653,-82.36941635,154.4434729,1.305465977,22.67629018,876.3450278,17.60109994,0.68359375,1870.533273,1.246674812,0.68359375,4.052189948,0.9990266715,6.940771589,-4.076698451,26.49948415,26.80709606,57.84635559,-57.77660363,115.6229592,1.24647343,21.259566,702.22266,14.0347568,0.68359375,1573.621927,0.9417080239,0.68359375,3.312353513,0.9999381185,6.282519553,-0.5294296188,64.95993784,64.95183903,131.8394412,-125.9521038,257.791545,1.205916943,53.86767157,4219.793524,84.83846587,1.26953125,9075.61945,1.136821857,1.171875,3.459002985,0.9999885643,6.747906919,0.9825558618,0.1212089666,0.9900015132,1.30031103,0.6774573824,0.6228536476,0.123360891,0.9825558618,0.01469161357,0.01963330755,0,4.986496316,0.08780208836,0.09765625,1.341015184,0.9999843935,2.029775544,-0.002317476744,0.1550444295,0.1550372711,0.3995984797,-0.5868510995,0.9864495792,1.304459101,0.1188572562,0.02403877512,0.0005044725841,0.68359375,0.04498990856,1.496346706,1.26953125,4.523075714,0.9996357561,8.76595028,-0.07003241109,0.1008668402,0.1227821058,0.2210436598,-0.3757318975,0.5967755573,0.9726844896,0.1036994434,0.01017411945,0.0002932147643,0,0.02522304068,0.981930431,0.78125,4.21996531,0.9997155289,6.141033564,,-0.0000011669159,0.01671741918,0.01671717446,0.1145451283,-0.1263339273,0.2408790556,1.397219514,0.01196477648,0.000279472104,0.007130438918,277.5117788,0.0000005530603803,93.50585938,0.00003081335701,95.93053747,69.70214844,0.0000005530603803,10.35735271,0.879305024,142.2195287,9.607884782,0.001800236134,10.19666441,0.00002190401205,0.05376292287,0.05376214019,0.6069896756,-0.5531460154,1.160135691,1.532046453,0.03509222764,0.002890451876,0.01937043571,620.7504779,0.00000586280306,54.32128906,0.0001277961555,74.09125087,63.11035156,0.00000586280306,9.819512364,0.9743988965,137.784837,98.74237207,0.005042936344,106.9616305,-0.000005578380131,0.1740396672,0.1740371192,2.158647835,-1.585283403,3.743931239,1.918092924,0.09073578501,0.03028980575,0.03726851153,1710.278046,0.00007103979226,36.25488281,0.002950153972,75.5297138,53.83300781,0.00007103979226,9.83131408,0.9420359483,154.2283854,1035.78544,0.01415536551,1932.774717,0.000010642808,0.06501834629,0.06501739523,0.5911030044,-0.74644357,1.337546574,1.661626312,0.03912934324,0.004227385355,0.0174750982,847.9057008,0.000008124359099,65.18554688,0.000106788518,95.93718922,83.86230469,0.000008124359099,10.32484082,0.9492944401,175.6368871,144.3924955,0.005916664907,150.564725,-0.000001839553325,0.1418298034,0.1418277268,1.377667294,-1.233104851,2.610772146,1.450394348,0.0977870629,0.02011569312,0.05578958888,1718.898508,0.00004369191543,57.00683594,0.0007207220098,77.18821583,67.50488281,0.00004369191543,9.921773017,0.984728112,153.3595948,688.9904227,0.01364568549,780.1383041,-0.00001085751934,0.06205160921,0.06205070166,0.5556705305,-0.3923182235,0.947988754,1.522739994,0.04074997009,0.003850402205,0.021460437,858.2376964,0.00000773171657,70.55664063,0.0001136676719,92.41040964,80.32226563,0.00000773171657,10.24330455,0.9579439064,173.7145825,132.0165604,0.005920953541,141.984758
7,1,-0.1702263464,39.20138713,39.19080519,99.64447003,-85.67543675,185.3199068,1.251310928,31.32825444,1536.748753,29.88046435,1.5625,1459.994393,1.805153421,1.5625,3.756698386,0.9995420585,12.82666218,3.562290754,14.45295241,14.88156752,41.08019318,-39.36571415,80.44590733,1.201808678,12.02600104,208.8878334,4.493641799,0.9765625,164.2227579,1.790799868,1.5625,4.283574458,0.9990586277,15.64597605,14.91997387,118.5645971,119.4667984,283.324262,-146.7537637,430.0780257,1.223171862,96.93208357,14057.56369,284.3485438,0.9765625,14904.79387,1.362955953,1.3671875,3.409328286,0.9999758148,11.20022165,1.100933224,0.2246257508,1.123602467,1.761256757,0.6088773815,1.152379375,0.20403213,1.100933224,0.05045672791,0.02521681111,0,3.536913324,0.1708125216,0,1.404229809,0.9999483164,2.082000186,-0.3067512825,0.3364084773,0.4551964292,0.6394785383,-1.097753742,1.73723228,0.8571233298,0.3924854985,0.1131706636,0.003918045943,0,0.2784436101,0.9529968965,0.390625,3.409962066,0.9986622814,4.391405469,-0.1884552898,0.157202487,0.2453858436,0.184775352,-0.6338252151,0.8186005671,0.7770228595,0.202313851,0.02471262193,0.001192246711,0,0.106223194,0.836477092,0.1953125,3.066913969,0.9993154949,3.38767066,,0.000001419308995,0.01320920884,0.01320895379,0.1134214604,-0.09884695211,0.2122684125,1.373374231,0.00961806953,0.0001744831982,0.005897050571,190.6395321,0.0000003421790996,99.73144531,0.00002221674267,110.529786,80.93261719,0.0000003421790996,10.4976368,0.8258399882,98.97988114,4.522159738,0.001501184137,4.694361667,-0.000009140470417,0.04192466109,0.04192385234,0.5059527742,-0.664021925,1.169974699,1.719387965,0.02438347944,0.001757677207,0.01219256467,373.6527459,0.000003629899891,37.71972656,0.00007956102126,76.31059472,60.546875,0.000003629899891,9.913023287,0.96393765,136.1000969,45.54522177,0.003599925943,50.55326908,0.000007945733536,0.07652287522,0.07652139766,0.9028957281,-0.7834800204,1.686375749,1.66942485,0.04583786758,0.005855750432,0.02015954301,717.0176575,0.00001144669754,41.9921875,0.0001714695586,87.7382623,73.48632813,0.00001144669754,10.14626876,0.9504493519,140.6782403,151.7283176,0.006889950675,163.4775639,0.000007637914888,0.0253709674,0.02537047853,0.2119496675,-0.2548305122,0.4667801796,1.647766489,0.01539718617,0.0006436859869,0.00792977164,288.6659103,0.000001253453492,44.43359375,0.00002232358245,105.3229858,88.25683594,0.000001253453492,10.51129546,0.905314772,152.420601,16.68320165,0.002417665956,17.53155723,0.000005732992314,0.0539066889,0.05390564804,0.3921874859,-0.474275803,0.8664632889,1.590201152,0.0338992893,0.002905931108,0.01641917815,469.8081785,0.00000577186191,37.23144531,0.0001239135955,72.12688982,59.32617188,0.00000577186191,9.754724002,0.9725837469,124.9443929,83.64500744,0.004892848014,79.52760235,0.0000003028814657,0.07851482126,0.07851330482,0.5593471744,-0.5985233583,1.157870533,1.426685736,0.05503301765,0.006164577158,0.0313099602,940.0805252,0.00001228161011,60.91308594,0.0001594867471,100.5838265,87.15820313,0.00001228161011,10.37946426,0.9351205087,153.5058887,159.7875463,0.00812727079,170.4327532
